{"parameter":[{"name":"medication","resource":{"entry":[{"fullUrl":"urn:uuid:b5dc1c92-6da8-4d46-b9ce-4b49685f44d9","resource":{"author":[{"display":"Jesper Odd Hansen, HPR: 7479654","reference":"urn:uuid:17626036-76a6-4cd5-acee-0b5abd512190","type":"http://ehelse.no/fhir/StructureDefinition/sfm-Practitioner"}],"confidentiality":"N","date":"2025-02-25","id":"829656fe-3ece-4e5b-b969-a9b62acd1c01","identifier":{"use":"official","value":"05becefc-b167-4b16-8ddb-797c20b61c68"},"meta":{"profile":["http://ehelse.no/fhir/StructureDefinition/sfm-MedicationComposition"]},"resourceType":"Composition","section":[{"code":{"coding":[{"code":"sectionMedication","display":"List of Medication statements","system":"http://ehelse.no/fhir/CodeSystem/sfm-section-types"}]},"entry":[{"display":"Canesten krem 10 mg/g/vag tab 500 mg","reference":"urn:uuid:9e98387a-82fa-49e4-83b3-46c416235bf3","type":"http://ehelse.no/fhir/StructureDefinition/sfm-MedicationStatement"},{"display":"Aerius tab 5 mg","reference":"urn:uuid:a66464b4-c142-4a73-b187-7a77d30c72a6","type":"http://ehelse.no/fhir/StructureDefinition/sfm-MedicationStatement"},{"display":"PAR-SME: beskr oppl 450 ml","reference":"urn:uuid:56d67155-8442-46e0-bb72-be8996ac2fac","type":"http://ehelse.no/fhir/StructureDefinition/sfm-MedicationStatement"},{"display":"p2 test bad, emul 502 ml","reference":"urn:uuid:cb317674-00ac-4910-8067-13a22fec6715","type":"http://ehelse.no/fhir/StructureDefinition/sfm-MedicationStatement"},{"display":"Furix tab 20 mg","reference":"urn:uuid:7bb37906-9bfa-4e6b-9617-1b6b05677f69","type":"http://ehelse.no/fhir/StructureDefinition/sfm-MedicationStatement"},{"display":"Seretide Diskus inh pulv, disp 50 mikrog/100 mikrog","reference":"urn:uuid:e2d7d32b-0aeb-4150-bd43-04e0a09ba1d5","type":"http://ehelse.no/fhir/StructureDefinition/sfm-MedicationStatement"},{"display":"PAR-SME: descr oppl 451 ml","reference":"urn:uuid:5605cfeb-97c9-440b-ab57-63b42aa65bcf","type":"http://ehelse.no/fhir/StructureDefinition/sfm-MedicationStatement"},{"display":"Ponvory tab 8 mg","reference":"urn:uuid:0d9a9114-22e1-4a0a-9df6-db15dfa6a256","type":"http://ehelse.no/fhir/StructureDefinition/sfm-MedicationStatement"},{"display":"Aerius tab 5 mg","reference":"urn:uuid:17770c85-1d8f-4206-b0db-257874bb0c55","type":"http://ehelse.no/fhir/StructureDefinition/sfm-MedicationStatement"},{"display":"Aerius tab 5 mg","reference":"urn:uuid:00869971-d381-4751-8d26-266145fc34b8","type":"http://ehelse.no/fhir/StructureDefinition/sfm-MedicationStatement"},{"display":"Omeprazol enterotab 10 mg","reference":"urn:uuid:88f1d922-2191-4f7a-b57c-bd75548bb768","type":"http://ehelse.no/fhir/StructureDefinition/sfm-MedicationStatement"},{"display":"Furix tab 20 mg","reference":"urn:uuid:9baadc20-3c86-4d3a-ac47-8c74a4323fc5","type":"http://ehelse.no/fhir/StructureDefinition/sfm-MedicationStatement"},{"display":"Zyrtec tab 10 mg","reference":"urn:uuid:53721af5-7833-4f88-a17c-10968df1d84a","type":"http://ehelse.no/fhir/StructureDefinition/sfm-MedicationStatement"},{"display":"Dolutegravir tab 50 mg","reference":"urn:uuid:051c41b0-8b61-44d7-a72c-73571c863de8","type":"http://ehelse.no/fhir/StructureDefinition/sfm-MedicationStatement"},{"display":"Dolutegravir tab 50 mg","reference":"urn:uuid:698c9d09-4f8c-4c5c-b717-517b95ebfb96","type":"http://ehelse.no/fhir/StructureDefinition/sfm-MedicationStatement"},{"display":"PAR-SME: Test bikubegel 456 cm2","reference":"urn:uuid:80efecb6-518c-4a55-ab37-d68cafe3bb89","type":"http://ehelse.no/fhir/StructureDefinition/sfm-MedicationStatement"},{"display":"Trimetoprim tab 300 mg","reference":"urn:uuid:09781d32-d17f-45fb-83be-af4102233c62","type":"http://ehelse.no/fhir/StructureDefinition/sfm-MedicationStatement"},{"display":"Ibuprofen mikst susp 40 mg/ml","reference":"urn:uuid:c1714d7d-9393-456a-8a36-bd42c032dc41","type":"http://ehelse.no/fhir/StructureDefinition/sfm-MedicationStatement"},{"display":"Sulfametoksazol/Trimetoprim tab 400 mg/80 mg","reference":"urn:uuid:0261f8a3-e2c0-49ee-a900-b458cecaf527","type":"http://ehelse.no/fhir/StructureDefinition/sfm-MedicationStatement"},{"display":"Koffein NAF tab 100 mg","reference":"urn:uuid:67c02ae8-c088-42a9-aaee-7fea6ccd4568","type":"http://ehelse.no/fhir/StructureDefinition/sfm-MedicationStatement"}],"text":{"div":"<xhtml:div xmlns:xhtml=\"http://www.w3.org/1999/xhtml\">List of medications</xhtml:div>","status":"generated"},"title":"Medication"},{"code":{"coding":[{"code":"sectionPLLinfo","display":"PLL Info","system":"http://ehelse.no/fhir/CodeSystem/sfm-section-types"}]},"entry":[{"display":"M25.1","reference":"urn:uuid:59bf889b-0363-4603-b8f3-50bb85298185","type":"http://ehelse.no/fhir/StructureDefinition/sfm-PLL-info"}],"text":{"div":"<xhtml:div xmlns:xhtml=\"http://www.w3.org/1999/xhtml\">Info read from M25</xhtml:div>","status":"generated"},"title":"PllInfo"},{"code":{"coding":[{"code":"sectionAllergies","display":"Section allergies","system":"http://ehelse.no/fhir/CodeSystem/sfm-section-types"}]},"entry":[{"display":"KjAllergyIntolerance","reference":"urn:uuid:145b2c59-de28-489a-aabd-ae1ac1d24fea","type":"http://nhn.no/kj/fhir/StructureDefinition/KjAllergyIntolerance"},{"display":"KjAllergyIntolerance","reference":"urn:uuid:36389b48-7deb-464b-b9a1-69c8c9102576","type":"http://nhn.no/kj/fhir/StructureDefinition/KjAllergyIntolerance"}],"text":{"div":"<xhtml:div xmlns:xhtml=\"http://www.w3.org/1999/xhtml\">List of allergies</xhtml:div>","status":"generated"},"title":"Allergies"},{"code":{"coding":[{"code":"sectionOtherPrescriptions","display":"List of non medical prescriptions","system":"http://ehelse.no/fhir/CodeSystem/sfm-section-types"}]},"entry":[{"display":"sfm-BandaPrescription","reference":"urn:uuid:f67e7eac-fd66-42d2-9817-4089bd2de800","type":"http://ehelse.no/fhir/StructureDefinition/sfm-BandaPrescription"},{"display":"sfm-BandaPrescription","reference":"urn:uuid:7409466d-7c88-4e5d-9561-faeff93d98fb","type":"http://ehelse.no/fhir/StructureDefinition/sfm-BandaPrescription"},{"display":"sfm-BandaPrescription","reference":"urn:uuid:9855704e-b5d7-4923-9f6a-d05c995be2e4","type":"http://ehelse.no/fhir/StructureDefinition/sfm-BandaPrescription"},{"display":"sfm-BandaPrescription","reference":"urn:uuid:c6487e12-9fcc-4d70-ad53-396a6b27e1c1","type":"http://ehelse.no/fhir/StructureDefinition/sfm-BandaPrescription"},{"display":"sfm-BandaPrescription","reference":"urn:uuid:50491920-df95-4116-a3d1-13db7a222ffd","type":"http://ehelse.no/fhir/StructureDefinition/sfm-BandaPrescription"}],"text":{"div":"<xhtml:div xmlns:xhtml=\"http://www.w3.org/1999/xhtml\">List of non medical prescriptions</xhtml:div>","status":"generated"},"title":"Other Prescriptions"}],"status":"final","subject":{"display":"Jeo 53 Test","reference":"urn:uuid:aa2377b7-b9b7-45fa-948b-4d817ecc899d","type":"http://ehelse.no/fhir/StructureDefinition/sfm-Patient"},"title":"Medication summary","type":{"coding":[{"code":"11503-0","display":"Medical records","system":"http://loinc.org"}]}}},{"fullUrl":"urn:uuid:17626036-76a6-4cd5-acee-0b5abd512190","resource":{"active":true,"birthDate":"1982-04-23","gender":"female","id":"1483883553","identifier":[{"system":"urn:oid:2.16.578.1.12.4.1.4.4","type":{"coding":[{"code":"HPR-nummer","system":"http://hl7.no/fhir/NamingSystem/HPR"}]},"use":"usual","value":"7479654"},{"system":"urn:oid:2.16.578.1.12.4.1.4.1","type":{"coding":[{"code":"FNR-nummer","system":"http://hl7.no/fhir/NamingSystem/FNR"}]},"use":"official","value":"23048201385"}],"meta":{"profile":["http://ehelse.no/fhir/StructureDefinition/sfm-Practitioner"]},"name":[{"family":"Hansen","given":["Jesper Odd"],"use":"official"}],"resourceType":"Practitioner"}},{"fullUrl":"urn:uuid:aa2377b7-b9b7-45fa-948b-4d817ecc899d","resource":{"active":true,"address":[{"city":"Fauske","postalCode":"8200","type":"physical"}],"birthDate":"2008-02-21","gender":"female","id":"1145832992","identifier":[{"system":"urn:oid:2.16.578.1.12.4.1.4.1","type":{"coding":[{"code":"FNR-nummer","system":"http://hl7.no/fhir/NamingSystem/FNR"}]},"use":"official","value":"21020874241"}],"meta":{"profile":["http://ehelse.no/fhir/StructureDefinition/sfm-Patient"]},"name":[{"family":"Test","given":["Jeo 53"]}],"resourceType":"Patient"}},{"fullUrl":"urn:uuid:40dfb413-e5d7-4f7e-87d0-228f0e6a9ed1","resource":{"code":{"coding":[{"code":"436468","display":"Canesten krem 10 mg/g/vag tab 500 mg","system":"http://ehelse.no/fhir/CodeSystem/FEST"}]},"extension":[{"extension":[{"url":"prescriptiongroup","valueCodeableConcept":{"coding":[{"code":"F","display":"Reseptgruppe F","system":"urn:oid:2.16.578.1.12.4.1.1.7421"}]}}],"url":"http://hl7.no/fhir/StructureDefinition/no-basis-prescriptiongroup"},{"extension":[{"url":"registreringstype","valueCodeableConcept":{"coding":[{"code":"3","display":"Legemiddelpakning","system":"http://ehelse.no/fhir/CodeSystem/sfm-festregistrationtype"}]}},{"extension":[{"url":"name","valueString":"Canesten"},{"url":"packingsize","valueString":"20"},{"url":"packingunit","valueCodeableConcept":{"coding":[{"code":"g","display":"gram","system":"urn:oid:2.16.578.1.12.4.1.1.7452"}]}}],"url":"packinginfoprescription"}],"url":"http://ehelse.no/fhir/StructureDefinition/sfm-medicationdetails"}],"form":{"coding":[{"code":"159","display":"Kombinasjonspakning","system":"urn:oid:2.16.578.1.12.4.1.1.7448"}]},"id":"110465153","identifier":[{"type":{"text":"identifier"},"use":"official","value":"436468"}],"meta":{"profile":["http://ehelse.no/fhir/StructureDefinition/sfm-Medication"]},"resourceType":"Medication","status":"active"}},{"fullUrl":"urn:uuid:9e98387a-82fa-49e4-83b3-46c416235bf3","resource":{"dosage":[{"extension":[{"url":"http://ehelse.no/fhir/StructureDefinition/sfm-use","valueCodeableConcept":{"coding":[{"code":"2","display":"Kur","system":"urn:oid:2.16.578.1.12.4.1.1.9101"}]}},{"extension":[{"url":"text","valueString":"MOT SOPP I SKJEDEN"}],"url":"http://ehelse.no/fhir/StructureDefinition/sfm-application-area"}],"sequence":1,"text":"test"}],"extension":[{"extension":[{"url":"reseptdate","valueDate":"2025-02-11"},{"url":"expirationdate","valueDate":"2026-02-10"},{"url":"festUpdate","valueDateTime":"2022-09-08T13:34:11+00:00"},{"url":"guardiantransparencyreservation","valueBoolean":false},{"url":"indoctorsname","valueBoolean":false},{"url":"dssn","valueString":"test"},{"url":"lockedresept","valueBoolean":false},{"url":"numberofpackages","valueDecimal":1},{"url":"reit","valueString":"0"},{"url":"itemgroup","valueCodeableConcept":{"coding":[{"code":"L","display":"Legemiddel","system":"urn:oid:2.16.578.1.12.4.1.1.7402"}]}},{"extension":[{"url":"status","valueCodeableConcept":{"coding":[{"code":"E","display":"Ekspederbar","system":"urn:oid:2.16.578.1.12.4.1.1.7408"}]}}],"url":"rfstatus"},{"url":"lastchanged","valueDateTime":"2025-02-11T05:51:13.3663152+01:00"},{"url":"typeresept","valueCodeableConcept":{"coding":[{"code":"E","display":"Eresept","system":"urn:oid:2.16.578.1.12.4.1.1.7491"}]}}],"url":"http://ehelse.no/fhir/StructureDefinition/sfm-reseptamendment"},{"url":"effectiveDateTime","valueDate":"2025-02-11"},{"extension":[{"url":"status","valueCodeableConcept":{"coding":[{"code":"3","display":"Godkjent","system":"http://ehelse.no/fhir/CodeSystem/sfm-medicationstatement-registration-status"}]}},{"url":"type","valueCodeableConcept":{"coding":[{"code":"1","display":"Forskrevet av","system":"http://ehelse.no/fhir/CodeSystem/sfm-performer-roles"}]}},{"url":"provider","valueReference":{"display":"Jesper Odd Hansen, HPR: 7479654","reference":"urn:uuid:17626036-76a6-4cd5-acee-0b5abd512190","type":"http://ehelse.no/fhir/StructureDefinition/sfm-Practitioner"}},{"url":"timestamp","valueDateTime":"2025-02-11T05:51:17.3359783+01:00"}],"url":"http://ehelse.no/fhir/StructureDefinition/sfm-regInfo"},{"extension":[{"url":"genericSubstitutionAccepted","valueBoolean":true}],"url":"http://ehelse.no/fhir/StructureDefinition/sfm-generic-substitution"}],"id":"37677811","identifier":[{"type":{"text":"PLL"},"use":"usual","value":"025de200-cb2c-4169-95b0-6305ea22a162"},{"type":{"text":"ReseptId"},"use":"usual","value":"ce89e61e-1f3f-4c41-888c-4e25cacb1337"}],"medicationReference":{"display":"Canesten krem 10 mg/g/vag tab 500 mg","reference":"urn:uuid:40dfb413-e5d7-4f7e-87d0-228f0e6a9ed1","type":"http://ehelse.no/fhir/StructureDefinition/sfm-Medication"},"meta":{"profile":["http://ehelse.no/fhir/StructureDefinition/sfm-MedicationStatement"]},"resourceType":"MedicationStatement","status":"active","subject":{"display":"Jeo 53 Test","reference":"urn:uuid:aa2377b7-b9b7-45fa-948b-4d817ecc899d","type":"http://ehelse.no/fhir/StructureDefinition/sfm-Patient"}}},{"fullUrl":"urn:uuid:c540762d-00fd-4399-9e96-3210c8210a9b","resource":{"code":{"coding":[{"code":"472759","display":"Aerius tab 5 mg","system":"http://ehelse.no/fhir/CodeSystem/FEST"}]},"extension":[{"extension":[{"url":"prescriptiongroup","valueCodeableConcept":{"coding":[{"code":"C","display":"Reseptgruppe C","system":"urn:oid:2.16.578.1.12.4.1.1.7421"}]}}],"url":"http://hl7.no/fhir/StructureDefinition/no-basis-prescriptiongroup"},{"extension":[{"url":"registreringstype","valueCodeableConcept":{"coding":[{"code":"3","display":"Legemiddelpakning","system":"http://ehelse.no/fhir/CodeSystem/sfm-festregistrationtype"}]}},{"extension":[{"url":"name","valueString":"Aerius"},{"url":"packingsize","valueString":"100"},{"url":"packingunit","valueCodeableConcept":{"coding":[{"code":"stk","display":"stykk","system":"urn:oid:2.16.578.1.12.4.1.1.7452"}]}}],"url":"packinginfoprescription"}],"url":"http://ehelse.no/fhir/StructureDefinition/sfm-medicationdetails"}],"form":{"coding":[{"code":"53","display":"Tablett","system":"urn:oid:2.16.578.1.12.4.1.1.7448"}]},"id":"1760724111","identifier":[{"type":{"text":"identifier"},"use":"official","value":"472759"}],"meta":{"profile":["http://ehelse.no/fhir/StructureDefinition/sfm-Medication"]},"resourceType":"Medication","status":"active"}},{"fullUrl":"urn:uuid:a66464b4-c142-4a73-b187-7a77d30c72a6","resource":{"dosage":[{"extension":[{"url":"http://ehelse.no/fhir/StructureDefinition/sfm-shortdosage","valueCodeableConcept":{"coding":[{"code":"5507","display":"1+0+0+0","system":"urn:oid:2.16.578.1.12.4.1.1.7478"}]}},{"url":"http://ehelse.no/fhir/StructureDefinition/sfm-use","valueCodeableConcept":{"coding":[{"code":"1","display":"Fast","system":"urn:oid:2.16.578.1.12.4.1.1.9101"}]}},{"extension":[{"url":"text","valueString":"MOT ALLERGI"}],"url":"http://ehelse.no/fhir/StructureDefinition/sfm-application-area"}],"sequence":1,"text":"1 tablett morgen"}],"extension":[{"extension":[{"url":"reseptdate","valueDate":"2025-02-21"},{"url":"expirationdate","valueDate":"2026-02-21"},{"url":"festUpdate","valueDateTime":"2023-12-20T11:54:48.9287539+00:00"},{"url":"dssn","valueString":"1 tablett morgen"},{"url":"numberofpackages","valueDecimal":1},{"url":"reit","valueString":"0"},{"url":"itemgroup","valueCodeableConcept":{"coding":[{"code":"L","display":"Legemiddel","system":"urn:oid:2.16.578.1.12.4.1.1.7402"}]}},{"url":"reimbursementcode","valueCodeableConcept":{"coding":[{"code":"L50","display":"Urticaria","system":"urn:oid:2.16.578.1.12.4.1.1.7435"}]}},{"url":"reimbursementparagraph","valueCodeableConcept":{"coding":[{"code":"200","display":"§5-14 §2","system":"urn:oid:2.16.578.1.12.4.1.1.7427"}]}},{"extension":[{"url":"status","valueCodeableConcept":{"coding":[{"code":"E","display":"Ekspederbar","system":"urn:oid:2.16.578.1.12.4.1.1.7408"}]}}],"url":"rfstatus"},{"url":"lastchanged","valueDateTime":"2025-02-21T16:50:42+01:00"},{"url":"typeresept","valueCodeableConcept":{"coding":[{"code":"E","display":"Eresept","system":"urn:oid:2.16.578.1.12.4.1.1.7491"}]}}],"url":"http://ehelse.no/fhir/StructureDefinition/sfm-reseptamendment"},{"extension":[{"url":"status","valueCodeableConcept":{"coding":[{"code":"3","display":"Godkjent","system":"http://ehelse.no/fhir/CodeSystem/sfm-medicationstatement-registration-status"}]}},{"url":"type","valueCodeableConcept":{"coding":[{"code":"1","display":"Forskrevet av","system":"http://ehelse.no/fhir/CodeSystem/sfm-performer-roles"}]}},{"url":"provider","valueReference":{"display":"Jesper Odd Hansen, HPR: 7479654","reference":"urn:uuid:17626036-76a6-4cd5-acee-0b5abd512190","type":"http://ehelse.no/fhir/StructureDefinition/sfm-Practitioner"}},{"url":"timestamp","valueDateTime":"2025-02-21T16:50:48.0105565+01:00"}],"url":"http://ehelse.no/fhir/StructureDefinition/sfm-regInfo"},{"extension":[{"url":"genericSubstitutionAccepted","valueBoolean":true}],"url":"http://ehelse.no/fhir/StructureDefinition/sfm-generic-substitution"}],"id":"280028691","identifier":[{"type":{"text":"PLL"},"use":"usual","value":"873382c8-a42a-4acd-937f-af3bf889a933"},{"type":{"text":"ReseptId"},"use":"usual","value":"602be0f0-2a77-4d03-b0c3-80deb94a6885"}],"medicationReference":{"display":"Aerius tab 5 mg","reference":"urn:uuid:c540762d-00fd-4399-9e96-3210c8210a9b","type":"http://ehelse.no/fhir/StructureDefinition/sfm-Medication"},"meta":{"profile":["http://ehelse.no/fhir/StructureDefinition/sfm-MedicationStatement"]},"resourceType":"MedicationStatement","status":"active","subject":{"display":"Jeo 53 Test","reference":"urn:uuid:aa2377b7-b9b7-45fa-948b-4d817ecc899d","type":"http://ehelse.no/fhir/StructureDefinition/sfm-Patient"}}},{"fullUrl":"urn:uuid:7d183495-8caa-4895-8b65-2e338cbd1562","resource":{"amount":{"numerator":{"unit":"ml","value":450}},"code":{"coding":[{"code":"10","display":"Magistrell","system":"urn:oid:2.16.578.1.12.4.1.1.7424"}]},"extension":[{"url":"http://ehelse.no/fhir/StructureDefinition/sfm-name","valueString":"PAR-SME: beskr oppl 450 ml"},{"url":"http://ehelse.no/fhir/StructureDefinition/sfm-recipe","valueString":"test"}],"form":{"coding":[{"code":"136","display":"oppl","system":"urn:oid:2.16.578.1.12.4.1.1.7448"}]},"id":"32759913","meta":{"profile":["http://ehelse.no/fhir/StructureDefinition/sfm-Magistrell-Medication"]},"resourceType":"Medication","status":"active"}},{"fullUrl":"urn:uuid:56d67155-8442-46e0-bb72-be8996ac2fac","resource":{"dosage":[{"extension":[{"url":"http://ehelse.no/fhir/StructureDefinition/sfm-use","valueCodeableConcept":{"coding":[{"code":"1","display":"Fast","system":"urn:oid:2.16.578.1.12.4.1.1.9101"}]}},{"extension":[{"url":"text","valueString":"MN"}],"url":"http://ehelse.no/fhir/StructureDefinition/sfm-application-area"}],"sequence":1,"text":"dssn"}],"extension":[{"extension":[{"url":"reseptdate","valueDate":"2025-01-20"},{"url":"expirationdate","valueDate":"2026-01-19"},{"url":"festUpdate","valueDateTime":"2022-09-08T13:34:11+00:00"},{"url":"guardiantransparencyreservation","valueBoolean":false},{"url":"indoctorsname","valueBoolean":false},{"url":"dssn","valueString":"dssn"},{"url":"lockedresept","valueBoolean":false},{"url":"amount","valueQuantity":{"unit":"milliliter","value":450}},{"url":"numberofpackages","valueDecimal":1},{"url":"reit","valueString":"0"},{"url":"itemgroup","valueCodeableConcept":{"coding":[{"code":"L","display":"Legemiddel","system":"urn:oid:2.16.578.1.12.4.1.1.7402"}]}},{"extension":[{"url":"status","valueCodeableConcept":{"coding":[{"code":"E","display":"Ekspederbar","system":"urn:oid:2.16.578.1.12.4.1.1.7408"}]}}],"url":"rfstatus"},{"url":"lastchanged","valueDateTime":"2025-01-29T08:50:04.4092852+01:00"},{"url":"typeresept","valueCodeableConcept":{"coding":[{"code":"E","display":"Eresept","system":"urn:oid:2.16.578.1.12.4.1.1.7491"}]}}],"url":"http://ehelse.no/fhir/StructureDefinition/sfm-reseptamendment"},{"extension":[{"url":"status","valueCodeableConcept":{"coding":[{"code":"3","display":"Godkjent","system":"http://ehelse.no/fhir/CodeSystem/sfm-medicationstatement-registration-status"}]}},{"url":"type","valueCodeableConcept":{"coding":[{"code":"1","display":"Forskrevet av","system":"http://ehelse.no/fhir/CodeSystem/sfm-performer-roles"}]}},{"url":"provider","valueReference":{"display":"Jesper Odd Hansen, HPR: 7479654","reference":"urn:uuid:17626036-76a6-4cd5-acee-0b5abd512190","type":"http://ehelse.no/fhir/StructureDefinition/sfm-Practitioner"}},{"url":"timestamp","valueDateTime":"2025-01-20T12:19:54.2335934+01:00"}],"url":"http://ehelse.no/fhir/StructureDefinition/sfm-regInfo"},{"extension":[{"url":"genericSubstitutionAccepted","valueBoolean":true}],"url":"http://ehelse.no/fhir/StructureDefinition/sfm-generic-substitution"}],"id":"282194843","identifier":[{"type":{"text":"PLL"},"use":"usual","value":"e36c76aa-6255-4807-a5f5-485979979705"},{"type":{"text":"ReseptId"},"use":"usual","value":"4dc7a7c9-8648-4472-b181-cf173af1d27e"}],"medicationReference":{"display":"PAR-SME: beskr oppl 450 ml","reference":"urn:uuid:7d183495-8caa-4895-8b65-2e338cbd1562","type":"http://ehelse.no/fhir/StructureDefinition/sfm-Magistrell-Medication"},"meta":{"profile":["http://ehelse.no/fhir/StructureDefinition/sfm-MedicationStatement"]},"resourceType":"MedicationStatement","status":"active","subject":{"display":"Jeo 53 Test","reference":"urn:uuid:aa2377b7-b9b7-45fa-948b-4d817ecc899d","type":"http://ehelse.no/fhir/StructureDefinition/sfm-Patient"}}},{"fullUrl":"urn:uuid:feba2566-2e58-445d-884c-b0c516673d52","resource":{"amount":{"numerator":{"unit":"ml","value":502}},"code":{"coding":[{"code":"10","display":"Magistrell","system":"urn:oid:2.16.578.1.12.4.1.1.7424"}]},"extension":[{"url":"http://ehelse.no/fhir/StructureDefinition/sfm-name","valueString":"p2 test bad, emul 502 ml"},{"url":"http://ehelse.no/fhir/StructureDefinition/sfm-recipe","valueString":"test av p2"}],"form":{"coding":[{"code":"708","display":"bad, emul","system":"urn:oid:2.16.578.1.12.4.1.1.7448"}]},"id":"64316810","meta":{"profile":["http://ehelse.no/fhir/StructureDefinition/sfm-Magistrell-Medication"]},"resourceType":"Medication","status":"active"}},{"fullUrl":"urn:uuid:cb317674-00ac-4910-8067-13a22fec6715","resource":{"dosage":[{"extension":[{"url":"http://ehelse.no/fhir/StructureDefinition/sfm-use","valueCodeableConcept":{"coding":[{"code":"1","display":"Fast","system":"urn:oid:2.16.578.1.12.4.1.1.9101"}]}},{"extension":[{"url":"text","valueString":"M"}],"url":"http://ehelse.no/fhir/StructureDefinition/sfm-application-area"}],"sequence":1,"text":"1 ampulle daglig i 1 uke.\nDeretter ingen dosering i 1 uke.\nDeretter 1 ampulle kveld daglig i 1 uke"}],"extension":[{"extension":[{"url":"reseptdate","valueDate":"2025-01-20"},{"url":"expirationdate","valueDate":"2026-01-19"},{"url":"festUpdate","valueDateTime":"2022-09-08T13:34:11+00:00"},{"url":"guardiantransparencyreservation","valueBoolean":false},{"url":"indoctorsname","valueBoolean":false},{"url":"dssn","valueString":"1 ampulle daglig i 1 uke.\nDeretter ingen dosering i 1 uke.\nDeretter 1 ampulle kveld daglig i 1 uke"},{"url":"lockedresept","valueBoolean":false},{"url":"amount","valueQuantity":{"unit":"milliliter","value":502}},{"url":"numberofpackages","valueDecimal":1},{"url":"reit","valueString":"0"},{"url":"itemgroup","valueCodeableConcept":{"coding":[{"code":"L","display":"Legemiddel","system":"urn:oid:2.16.578.1.12.4.1.1.7402"}]}},{"url":"reimbursementcode","valueCodeableConcept":{"coding":[{"code":"-90","display":"Palliativ behandling i livets sluttfase","system":"urn:oid:2.16.578.1.12.4.1.1.7435"}]}},{"url":"reimbursementparagraph","valueCodeableConcept":{"coding":[{"code":"200","display":"§5-14 §2","system":"urn:oid:2.16.578.1.12.4.1.1.7427"}]}},{"extension":[{"url":"starttime","valueDate":"2025-01-20"},{"url":"endtime","valueDate":"2025-01-27"},{"extension":[{"url":"amount","valueQuantity":{"unit":"ampulle","value":1}},{"url":"interval","valueQuantity":{"unit":"Døgn","value":1}},{"url":"accurate","valueBoolean":false},{"url":"timerange","valueCodeableConcept":{"coding":[{"code":"1","display":"Morgen","system":"urn:oid:2.16.578.1.12.4.1.1.8325"}]}}],"url":"repeatingdosage"}],"url":"ereseptdosing"},{"extension":[{"url":"starttime","valueDate":"2025-02-03"},{"url":"endtime","valueDate":"2025-02-10"},{"extension":[{"url":"amount","valueQuantity":{"unit":"ampulle","value":1}},{"url":"interval","valueQuantity":{"unit":"Døgn","value":1}},{"url":"accurate","valueBoolean":false},{"url":"timerange","valueCodeableConcept":{"coding":[{"code":"5","display":"Kveld","system":"urn:oid:2.16.578.1.12.4.1.1.8325"}]}}],"url":"repeatingdosage"}],"url":"ereseptdosing"},{"extension":[{"url":"status","valueCodeableConcept":{"coding":[{"code":"E","display":"Ekspederbar","system":"urn:oid:2.16.578.1.12.4.1.1.7408"}]}}],"url":"rfstatus"},{"url":"lastchanged","valueDateTime":"2025-01-29T08:50:04.409307+01:00"},{"url":"typeresept","valueCodeableConcept":{"coding":[{"code":"E","display":"Eresept","system":"urn:oid:2.16.578.1.12.4.1.1.7491"}]}}],"url":"http://ehelse.no/fhir/StructureDefinition/sfm-reseptamendment"},{"extension":[{"url":"status","valueCodeableConcept":{"coding":[{"code":"3","display":"Godkjent","system":"http://ehelse.no/fhir/CodeSystem/sfm-medicationstatement-registration-status"}]}},{"url":"type","valueCodeableConcept":{"coding":[{"code":"1","display":"Forskrevet av","system":"http://ehelse.no/fhir/CodeSystem/sfm-performer-roles"}]}},{"url":"provider","valueReference":{"display":"Jesper Odd Hansen, HPR: 7479654","reference":"urn:uuid:17626036-76a6-4cd5-acee-0b5abd512190","type":"http://ehelse.no/fhir/StructureDefinition/sfm-Practitioner"}},{"url":"timestamp","valueDateTime":"2025-01-20T19:32:22.3772412+01:00"}],"url":"http://ehelse.no/fhir/StructureDefinition/sfm-regInfo"},{"extension":[{"url":"genericSubstitutionAccepted","valueBoolean":true}],"url":"http://ehelse.no/fhir/StructureDefinition/sfm-generic-substitution"}],"id":"1561788369","identifier":[{"type":{"text":"PLL"},"use":"usual","value":"5837f2f8-eefa-46a0-aaaf-ff27d0e53e7d"},{"type":{"text":"ReseptId"},"use":"usual","value":"70cb4fcc-afe8-4c1c-adac-cd297341743d"}],"medicationReference":{"display":"p2 test bad, emul 502 ml","reference":"urn:uuid:feba2566-2e58-445d-884c-b0c516673d52","type":"http://ehelse.no/fhir/StructureDefinition/sfm-Magistrell-Medication"},"meta":{"profile":["http://ehelse.no/fhir/StructureDefinition/sfm-MedicationStatement"]},"resourceType":"MedicationStatement","status":"active","subject":{"display":"Jeo 53 Test","reference":"urn:uuid:aa2377b7-b9b7-45fa-948b-4d817ecc899d","type":"http://ehelse.no/fhir/StructureDefinition/sfm-Patient"}}},{"fullUrl":"urn:uuid:0441af9a-9fbc-4a3f-995b-5e7953679b41","resource":{"code":{"coding":[{"code":"029454","display":"Furix tab 20 mg","system":"http://ehelse.no/fhir/CodeSystem/FEST"}]},"extension":[{"extension":[{"url":"prescriptiongroup","valueCodeableConcept":{"coding":[{"code":"C","display":"Reseptgruppe C","system":"urn:oid:2.16.578.1.12.4.1.1.7421"}]}}],"url":"http://hl7.no/fhir/StructureDefinition/no-basis-prescriptiongroup"},{"extension":[{"url":"registreringstype","valueCodeableConcept":{"coding":[{"code":"3","display":"Legemiddelpakning","system":"http://ehelse.no/fhir/CodeSystem/sfm-festregistrationtype"}]}},{"extension":[{"url":"name","valueString":"Furix"},{"url":"packingsize","valueString":"100"},{"url":"packingunit","valueCodeableConcept":{"coding":[{"code":"stk","display":"stykk","system":"urn:oid:2.16.578.1.12.4.1.1.7452"}]}}],"url":"packinginfoprescription"}],"url":"http://ehelse.no/fhir/StructureDefinition/sfm-medicationdetails"}],"form":{"coding":[{"code":"53","display":"Tablett","system":"urn:oid:2.16.578.1.12.4.1.1.7448"}]},"id":"329326433","identifier":[{"type":{"text":"identifier"},"use":"official","value":"029454"}],"meta":{"profile":["http://ehelse.no/fhir/StructureDefinition/sfm-Medication"]},"resourceType":"Medication","status":"active"}},{"fullUrl":"urn:uuid:7bb37906-9bfa-4e6b-9617-1b6b05677f69","resource":{"basedOn":[{"display":"Furix tab 20 mg","reference":"urn:uuid:05a017c3-af35-48ec-b837-eff768cf242c","type":"http://ehelse.no/fhir/StructureDefinition/sfm-MedicationStatement"}],"dosage":[{"extension":[{"url":"http://ehelse.no/fhir/StructureDefinition/sfm-shortdosage","valueCodeableConcept":{"coding":[{"code":"5507","display":"1+0+0+0","system":"urn:oid:2.16.578.1.12.4.1.1.7478"}]}},{"url":"http://ehelse.no/fhir/StructureDefinition/sfm-use","valueCodeableConcept":{"coding":[{"code":"1","display":"Fast","system":"urn:oid:2.16.578.1.12.4.1.1.9101"}]}},{"extension":[{"url":"text","valueString":"BLODTRYKKSMEDISIN"}],"url":"http://ehelse.no/fhir/StructureDefinition/sfm-application-area"}],"sequence":1,"text":"1 tablett morgen"}],"extension":[{"extension":[{"url":"reseptdate","valueDate":"2025-02-06"},{"url":"expirationdate","valueDate":"2026-02-05"},{"url":"festUpdate","valueDateTime":"2022-09-08T13:34:11+00:00"},{"url":"guardiantransparencyreservation","valueBoolean":false},{"url":"indoctorsname","valueBoolean":false},{"url":"dssn","valueString":"1 tablett morgen"},{"url":"lockedresept","valueBoolean":false},{"url":"numberofpackages","valueDecimal":1},{"url":"reit","valueString":"0"},{"url":"itemgroup","valueCodeableConcept":{"coding":[{"code":"L","display":"Legemiddel","system":"urn:oid:2.16.578.1.12.4.1.1.7402"}]}},{"url":"reimbursementparagraph","valueCodeableConcept":{"coding":[{"code":"800","display":"§5-25","system":"urn:oid:2.16.578.1.12.4.1.1.7427"}]}},{"extension":[{"url":"status","valueCodeableConcept":{"coding":[{"code":"E","display":"Ekspederbar","system":"urn:oid:2.16.578.1.12.4.1.1.7408"}]}}],"url":"rfstatus"},{"url":"lastchanged","valueDateTime":"2025-02-06T12:22:40.2757522+01:00"},{"url":"typeresept","valueCodeableConcept":{"coding":[{"code":"E","display":"Eresept","system":"urn:oid:2.16.578.1.12.4.1.1.7491"}]}}],"url":"http://ehelse.no/fhir/StructureDefinition/sfm-reseptamendment"},{"extension":[{"url":"status","valueCodeableConcept":{"coding":[{"code":"3","display":"Godkjent","system":"http://ehelse.no/fhir/CodeSystem/sfm-medicationstatement-registration-status"}]}},{"url":"type","valueCodeableConcept":{"coding":[{"code":"1","display":"Forskrevet av","system":"http://ehelse.no/fhir/CodeSystem/sfm-performer-roles"}]}},{"url":"provider","valueReference":{"display":"Jesper Odd Hansen, HPR: 7479654","reference":"urn:uuid:17626036-76a6-4cd5-acee-0b5abd512190","type":"http://ehelse.no/fhir/StructureDefinition/sfm-Practitioner"}},{"url":"timestamp","valueDateTime":"2025-02-06T12:22:44.3965247+01:00"}],"url":"http://ehelse.no/fhir/StructureDefinition/sfm-regInfo"},{"extension":[{"url":"genericSubstitutionAccepted","valueBoolean":true}],"url":"http://ehelse.no/fhir/StructureDefinition/sfm-generic-substitution"}],"id":"358022503","identifier":[{"type":{"text":"PLL"},"use":"usual","value":"d61f46e1-3460-4162-9a30-2d95d5d99b5c"},{"type":{"text":"ReseptId"},"use":"usual","value":"64ae3600-7c38-4725-bf75-1cde3daa7183"}],"medicationReference":{"display":"Furix tab 20 mg","reference":"urn:uuid:0441af9a-9fbc-4a3f-995b-5e7953679b41","type":"http://ehelse.no/fhir/StructureDefinition/sfm-Medication"},"meta":{"profile":["http://ehelse.no/fhir/StructureDefinition/sfm-MedicationStatement"]},"resourceType":"MedicationStatement","status":"active","subject":{"display":"Jeo 53 Test","reference":"urn:uuid:aa2377b7-b9b7-45fa-948b-4d817ecc899d","type":"http://ehelse.no/fhir/StructureDefinition/sfm-Patient"}}},{"fullUrl":"urn:uuid:05a017c3-af35-48ec-b837-eff768cf242c","resource":{"dosage":[{"extension":[{"url":"http://ehelse.no/fhir/StructureDefinition/sfm-shortdosage","valueCodeableConcept":{"coding":[{"code":"5507","display":"1+0+0+0","system":"urn:oid:2.16.578.1.12.4.1.1.7478"}]}},{"url":"http://ehelse.no/fhir/StructureDefinition/sfm-use","valueCodeableConcept":{"coding":[{"code":"1","display":"Fast","system":"urn:oid:2.16.578.1.12.4.1.1.9101"}]}},{"extension":[{"url":"text","valueString":"BLODTRYKKSMEDISIN"}],"url":"http://ehelse.no/fhir/StructureDefinition/sfm-application-area"}],"sequence":1,"text":"1 tablett morgen"}],"extension":[{"extension":[{"url":"reseptdate","valueDate":"2025-02-06"},{"url":"expirationdate","valueDate":"2026-02-06"},{"url":"festUpdate","valueDateTime":"2023-12-20T11:54:48.9287539+00:00"},{"url":"dssn","valueString":"1 tablett morgen"},{"url":"numberofpackages","valueDecimal":1},{"url":"reit","valueString":"0"},{"url":"itemgroup","valueCodeableConcept":{"coding":[{"code":"L","display":"Legemiddel","system":"urn:oid:2.16.578.1.12.4.1.1.7402"}]}},{"extension":[{"url":"recallId","valueString":"64ae3600-7c38-4725-bf75-1cde3daa7183"},{"url":"text","valueString":"Årsak: Fornying med endring\r\nMerknad: Forny med endring"},{"url":"recallcode","valueCodeableConcept":{"coding":[{"code":"3","display":"Fornying med endring","system":"urn:oid:2.16.578.1.12.4.1.1.7500"}]}},{"url":"performed","valueDateTime":"2025-02-06T12:22:44.374+01:00"}],"url":"recallinfo"},{"extension":[{"url":"status","valueCodeableConcept":{"coding":[{"code":"T","display":"Tilbakekalt","system":"urn:oid:2.16.578.1.12.4.1.1.7408"}]}}],"url":"rfstatus"},{"url":"typeresept","valueCodeableConcept":{"coding":[{"code":"E","display":"Eresept","system":"urn:oid:2.16.578.1.12.4.1.1.7491"}]}}],"url":"http://ehelse.no/fhir/StructureDefinition/sfm-reseptamendment"},{"extension":[{"url":"status","valueCodeableConcept":{"coding":[{"code":"3","display":"Godkjent","system":"http://ehelse.no/fhir/CodeSystem/sfm-medicationstatement-registration-status"}]}},{"url":"type","valueCodeableConcept":{"coding":[{"code":"1","display":"Forskrevet av","system":"http://ehelse.no/fhir/CodeSystem/sfm-performer-roles"}]}},{"url":"provider","valueReference":{"display":"Jesper Odd Hansen, HPR: 7479654","reference":"urn:uuid:17626036-76a6-4cd5-acee-0b5abd512190","type":"http://ehelse.no/fhir/StructureDefinition/sfm-Practitioner"}},{"url":"timestamp","valueDateTime":"2025-02-06T09:55:22.3596734+01:00"}],"url":"http://ehelse.no/fhir/StructureDefinition/sfm-regInfo"},{"extension":[{"url":"genericSubstitutionAccepted","valueBoolean":true}],"url":"http://ehelse.no/fhir/StructureDefinition/sfm-generic-substitution"}],"id":"1122949467","identifier":[{"type":{"text":"ReseptId"},"use":"usual","value":"69543773-6c7e-4bf6-84a4-b5db549f2396"}],"medicationReference":{"display":"Furix tab 20 mg","reference":"urn:uuid:0441af9a-9fbc-4a3f-995b-5e7953679b41","type":"http://ehelse.no/fhir/StructureDefinition/sfm-Medication"},"meta":{"profile":["http://ehelse.no/fhir/StructureDefinition/sfm-MedicationStatement"]},"partOf":[{"display":"Furix tab 20 mg","reference":"urn:uuid:7bb37906-9bfa-4e6b-9617-1b6b05677f69","type":"http://ehelse.no/fhir/StructureDefinition/sfm-MedicationStatement"}],"resourceType":"MedicationStatement","status":"completed","subject":{"display":"Jeo 53 Test","reference":"urn:uuid:aa2377b7-b9b7-45fa-948b-4d817ecc899d","type":"http://ehelse.no/fhir/StructureDefinition/sfm-Patient"}}},{"fullUrl":"urn:uuid:99e85b8e-c3da-4658-82e6-fc6442fd8cb9","resource":{"code":{"coding":[{"code":"373324","display":"Seretide Diskus inh pulv, disp 50 mikrog/100 mikrog","system":"http://ehelse.no/fhir/CodeSystem/FEST"}]},"extension":[{"extension":[{"url":"prescriptiongroup","valueCodeableConcept":{"coding":[{"code":"C","display":"Reseptgruppe C","system":"urn:oid:2.16.578.1.12.4.1.1.7421"}]}}],"url":"http://hl7.no/fhir/StructureDefinition/no-basis-prescriptiongroup"},{"extension":[{"url":"registreringstype","valueCodeableConcept":{"coding":[{"code":"3","display":"Legemiddelpakning","system":"http://ehelse.no/fhir/CodeSystem/sfm-festregistrationtype"}]}},{"extension":[{"url":"name","valueString":"Seretide Diskus"},{"url":"packingsize","valueString":"60"},{"url":"packingunit","valueCodeableConcept":{"coding":[{"code":"doser","display":"doser","system":"urn:oid:2.16.578.1.12.4.1.1.7452"}]}}],"url":"packinginfoprescription"}],"url":"http://ehelse.no/fhir/StructureDefinition/sfm-medicationdetails"}],"form":{"coding":[{"code":"863","display":"Inhalasjonspulver, dosedispensert","system":"urn:oid:2.16.578.1.12.4.1.1.7448"}]},"id":"620141467","identifier":[{"type":{"text":"identifier"},"use":"official","value":"373324"}],"meta":{"profile":["http://ehelse.no/fhir/StructureDefinition/sfm-Medication"]},"resourceType":"Medication","status":"active"}},{"fullUrl":"urn:uuid:e2d7d32b-0aeb-4150-bd43-04e0a09ba1d5","resource":{"dosage":[{"extension":[{"url":"http://ehelse.no/fhir/StructureDefinition/sfm-shortdosage","valueCodeableConcept":{"coding":[{"code":"5507","display":"1+0+0+0","system":"urn:oid:2.16.578.1.12.4.1.1.7478"}]}},{"url":"http://ehelse.no/fhir/StructureDefinition/sfm-use","valueCodeableConcept":{"coding":[{"code":"1","display":"Fast","system":"urn:oid:2.16.578.1.12.4.1.1.9101"}]}},{"extension":[{"url":"text","valueString":"MOT ASTMA"}],"url":"http://ehelse.no/fhir/StructureDefinition/sfm-application-area"}],"sequence":1,"text":"1 dose morgen"}],"extension":[{"extension":[{"url":"reseptdate","valueDate":"2025-01-30"},{"url":"expirationdate","valueDate":"2026-01-29"},{"url":"festUpdate","valueDateTime":"2025-01-10T10:42:35+00:00"},{"url":"guardiantransparencyreservation","valueBoolean":false},{"url":"indoctorsname","valueBoolean":false},{"url":"dssn","valueString":"1 dose morgen"},{"url":"lockedresept","valueBoolean":false},{"url":"numberofpackages","valueDecimal":1},{"url":"reit","valueString":"3"},{"url":"itemgroup","valueCodeableConcept":{"coding":[{"code":"L","display":"Legemiddel","system":"urn:oid:2.16.578.1.12.4.1.1.7402"}]}},{"url":"reimbursementcode","valueCodeableConcept":{"coding":[{"code":"J45","display":"Astma","system":"urn:oid:2.16.578.1.12.4.1.1.7435"}]}},{"url":"reimbursementparagraph","valueCodeableConcept":{"coding":[{"code":"200","display":"§5-14 §2","system":"urn:oid:2.16.578.1.12.4.1.1.7427"}]}},{"extension":[{"url":"starttime","valueDate":"2025-01-30"},{"extension":[{"url":"amount","valueQuantity":{"unit":"dose","value":1}},{"url":"interval","valueQuantity":{"unit":"Døgn","value":1}},{"url":"accurate","valueBoolean":false},{"url":"timerange","valueCodeableConcept":{"coding":[{"code":"1","display":"Morgen","system":"urn:oid:2.16.578.1.12.4.1.1.8325"}]}}],"url":"repeatingdosage"}],"url":"ereseptdosing"},{"extension":[{"url":"status","valueCodeableConcept":{"coding":[{"code":"E","display":"Ekspederbar","system":"urn:oid:2.16.578.1.12.4.1.1.7408"}]}}],"url":"rfstatus"},{"url":"lastchanged","valueDateTime":"2025-01-30T05:34:51.7205113+01:00"},{"url":"typeresept","valueCodeableConcept":{"coding":[{"code":"E","display":"Eresept","system":"urn:oid:2.16.578.1.12.4.1.1.7491"}]}}],"url":"http://ehelse.no/fhir/StructureDefinition/sfm-reseptamendment"},{"url":"effectiveDateTime","valueDate":"2025-01-30"},{"extension":[{"url":"status","valueCodeableConcept":{"coding":[{"code":"3","display":"Godkjent","system":"http://ehelse.no/fhir/CodeSystem/sfm-medicationstatement-registration-status"}]}},{"url":"type","valueCodeableConcept":{"coding":[{"code":"1","display":"Forskrevet av","system":"http://ehelse.no/fhir/CodeSystem/sfm-performer-roles"}]}},{"url":"provider","valueReference":{"display":"Jesper Odd Hansen, HPR: 7479654","reference":"urn:uuid:17626036-76a6-4cd5-acee-0b5abd512190","type":"http://ehelse.no/fhir/StructureDefinition/sfm-Practitioner"}},{"url":"timestamp","valueDateTime":"2025-01-30T05:34:53.2855767+01:00"}],"url":"http://ehelse.no/fhir/StructureDefinition/sfm-regInfo"},{"extension":[{"url":"genericSubstitutionAccepted","valueBoolean":true}],"url":"http://ehelse.no/fhir/StructureDefinition/sfm-generic-substitution"}],"id":"1424015441","identifier":[{"type":{"text":"PLL"},"use":"usual","value":"1719f780-e64f-471b-be52-f6d3db8914a7"},{"type":{"text":"ReseptId"},"use":"usual","value":"440f03e3-cd05-493e-a8f5-312a294645fa"}],"medicationReference":{"display":"Seretide Diskus inh pulv, disp 50 mikrog/100 mikrog","reference":"urn:uuid:99e85b8e-c3da-4658-82e6-fc6442fd8cb9","type":"http://ehelse.no/fhir/StructureDefinition/sfm-Medication"},"meta":{"profile":["http://ehelse.no/fhir/StructureDefinition/sfm-MedicationStatement"]},"resourceType":"MedicationStatement","status":"active","subject":{"display":"Jeo 53 Test","reference":"urn:uuid:aa2377b7-b9b7-45fa-948b-4d817ecc899d","type":"http://ehelse.no/fhir/StructureDefinition/sfm-Patient"}}},{"fullUrl":"urn:uuid:edf51d0c-0ac0-48a7-aaed-e23066a2bd7b","resource":{"amount":{"numerator":{"unit":"ml","value":451}},"code":{"coding":[{"code":"10","display":"Magistrell","system":"urn:oid:2.16.578.1.12.4.1.1.7424"}]},"extension":[{"url":"http://ehelse.no/fhir/StructureDefinition/sfm-name","valueString":"PAR-SME: descr oppl 451 ml"},{"url":"http://ehelse.no/fhir/StructureDefinition/sfm-recipe","valueString":"test2d"}],"form":{"coding":[{"code":"136","display":"oppl","system":"urn:oid:2.16.578.1.12.4.1.1.7448"}]},"id":"33401367","meta":{"profile":["http://ehelse.no/fhir/StructureDefinition/sfm-Magistrell-Medication"]},"resourceType":"Medication","status":"active"}},{"fullUrl":"urn:uuid:5605cfeb-97c9-440b-ab57-63b42aa65bcf","resource":{"dosage":[{"extension":[{"url":"http://ehelse.no/fhir/StructureDefinition/sfm-use","valueCodeableConcept":{"coding":[{"code":"1","display":"Fast","system":"urn:oid:2.16.578.1.12.4.1.1.9101"}]}},{"extension":[{"url":"text","valueString":"M"}],"url":"http://ehelse.no/fhir/StructureDefinition/sfm-application-area"}],"sequence":1,"text":"dss"}],"extension":[{"extension":[{"url":"reseptdate","valueDate":"2025-01-30"},{"url":"expirationdate","valueDate":"2026-01-19"},{"url":"festUpdate","valueDateTime":"2022-09-08T13:34:11+00:00"},{"url":"guardiantransparencyreservation","valueBoolean":false},{"url":"indoctorsname","valueBoolean":false},{"url":"dssn","valueString":"dss"},{"url":"lockedresept","valueBoolean":false},{"url":"amount","valueQuantity":{"unit":"milliliter","value":451}},{"url":"numberofpackages","valueDecimal":1},{"url":"reit","valueString":"0"},{"url":"itemgroup","valueCodeableConcept":{"coding":[{"code":"L","display":"Legemiddel","system":"urn:oid:2.16.578.1.12.4.1.1.7402"}]}},{"extension":[{"url":"status","valueCodeableConcept":{"coding":[{"code":"E","display":"Ekspederbar","system":"urn:oid:2.16.578.1.12.4.1.1.7408"}]}}],"url":"rfstatus"},{"url":"lastchanged","valueDateTime":"2025-01-30T09:09:20.1462729+01:00"},{"url":"typeresept","valueCodeableConcept":{"coding":[{"code":"E","display":"Eresept","system":"urn:oid:2.16.578.1.12.4.1.1.7491"}]}}],"url":"http://ehelse.no/fhir/StructureDefinition/sfm-reseptamendment"},{"extension":[{"url":"status","valueCodeableConcept":{"coding":[{"code":"3","display":"Godkjent","system":"http://ehelse.no/fhir/CodeSystem/sfm-medicationstatement-registration-status"}]}},{"url":"type","valueCodeableConcept":{"coding":[{"code":"1","display":"Forskrevet av","system":"http://ehelse.no/fhir/CodeSystem/sfm-performer-roles"}]}},{"url":"provider","valueReference":{"display":"Jesper Odd Hansen, HPR: 7479654","reference":"urn:uuid:17626036-76a6-4cd5-acee-0b5abd512190","type":"http://ehelse.no/fhir/StructureDefinition/sfm-Practitioner"}},{"url":"timestamp","valueDateTime":"2025-01-30T09:09:22.2893955+01:00"}],"url":"http://ehelse.no/fhir/StructureDefinition/sfm-regInfo"},{"extension":[{"url":"genericSubstitutionAccepted","valueBoolean":true}],"url":"http://ehelse.no/fhir/StructureDefinition/sfm-generic-substitution"}],"id":"394158470","identifier":[{"type":{"text":"PLL"},"use":"usual","value":"bd09378c-1bed-4edb-bf84-98b5682bd772"},{"type":{"text":"ReseptId"},"use":"usual","value":"b5f06474-0780-45c9-ab04-0cc47097fb2e"}],"medicationReference":{"display":"PAR-SME: descr oppl 451 ml","reference":"urn:uuid:edf51d0c-0ac0-48a7-aaed-e23066a2bd7b","type":"http://ehelse.no/fhir/StructureDefinition/sfm-Magistrell-Medication"},"meta":{"profile":["http://ehelse.no/fhir/StructureDefinition/sfm-MedicationStatement"]},"resourceType":"MedicationStatement","status":"active","subject":{"display":"Jeo 53 Test","reference":"urn:uuid:aa2377b7-b9b7-45fa-948b-4d817ecc899d","type":"http://ehelse.no/fhir/StructureDefinition/sfm-Patient"}}},{"fullUrl":"urn:uuid:465f37e7-e5f4-4571-8cdc-57055eaccfa7","resource":{"code":{"coding":[{"code":"398928","display":"Ponvory tab 8 mg","system":"http://ehelse.no/fhir/CodeSystem/FEST"}]},"extension":[{"extension":[{"url":"prescriptiongroup","valueCodeableConcept":{"coding":[{"code":"C","display":"Reseptgruppe C","system":"urn:oid:2.16.578.1.12.4.1.1.7421"}]}}],"url":"http://hl7.no/fhir/StructureDefinition/no-basis-prescriptiongroup"},{"extension":[{"url":"registreringstype","valueCodeableConcept":{"coding":[{"code":"3","display":"Legemiddelpakning","system":"http://ehelse.no/fhir/CodeSystem/sfm-festregistrationtype"}]}},{"extension":[{"url":"name","valueString":"Ponvory"},{"url":"packingsize","valueString":"1"},{"url":"packingunit","valueCodeableConcept":{"coding":[{"code":"stk","display":"stykk","system":"urn:oid:2.16.578.1.12.4.1.1.7452"}]}}],"url":"packinginfoprescription"}],"url":"http://ehelse.no/fhir/StructureDefinition/sfm-medicationdetails"}],"form":{"coding":[{"code":"53","display":"Tablett","system":"urn:oid:2.16.578.1.12.4.1.1.7448"}]},"id":"325017965","identifier":[{"type":{"text":"identifier"},"use":"official","value":"398928"}],"meta":{"profile":["http://ehelse.no/fhir/StructureDefinition/sfm-Medication"]},"resourceType":"Medication","status":"active"}},{"fullUrl":"urn:uuid:0d9a9114-22e1-4a0a-9df6-db15dfa6a256","resource":{"basedOn":[{"display":"Ponvory tab 8 mg","reference":"urn:uuid:d1636800-1b2a-4aec-9fc8-90adb183b240","type":"http://ehelse.no/fhir/StructureDefinition/sfm-MedicationStatement"}],"dosage":[{"extension":[{"url":"http://ehelse.no/fhir/StructureDefinition/sfm-use","valueCodeableConcept":{"coding":[{"code":"1","display":"Fast","system":"urn:oid:2.16.578.1.12.4.1.1.9101"}]}},{"extension":[{"url":"text","valueString":"MOT MULTIPPEL SKLEROSE"}],"url":"http://ehelse.no/fhir/StructureDefinition/sfm-application-area"}],"sequence":1,"text":"Etter meddelelse på runepinne"}],"extension":[{"extension":[{"url":"reseptdate","valueDate":"2025-01-30"},{"url":"expirationdate","valueDate":"2026-01-29"},{"url":"festUpdate","valueDateTime":"2025-01-10T10:42:35+00:00"},{"url":"guardiantransparencyreservation","valueBoolean":false},{"url":"indoctorsname","valueBoolean":false},{"url":"dssn","valueString":"Etter meddelelse på runepinne"},{"url":"lockedresept","valueBoolean":false},{"url":"numberofpackages","valueDecimal":1},{"url":"reit","valueString":"0"},{"url":"itemgroup","valueCodeableConcept":{"coding":[{"code":"L","display":"Legemiddel","system":"urn:oid:2.16.578.1.12.4.1.1.7402"}]}},{"url":"reimbursementcode","valueCodeableConcept":{"coding":[{"code":"G35","display":"Multippel sklerose","system":"urn:oid:2.16.578.1.12.4.1.1.7110"}]}},{"url":"reimbursementparagraph","valueCodeableConcept":{"coding":[{"code":"950","display":"H-resept","system":"urn:oid:2.16.578.1.12.4.1.1.7427"}]}},{"extension":[{"url":"status","valueCodeableConcept":{"coding":[{"code":"E","display":"Ekspederbar","system":"urn:oid:2.16.578.1.12.4.1.1.7408"}]}}],"url":"rfstatus"},{"url":"lastchanged","valueDateTime":"2025-01-30T05:31:07.6157462+01:00"},{"url":"typeresept","valueCodeableConcept":{"coding":[{"code":"E","display":"Eresept","system":"urn:oid:2.16.578.1.12.4.1.1.7491"}]}}],"url":"http://ehelse.no/fhir/StructureDefinition/sfm-reseptamendment"},{"extension":[{"url":"status","valueCodeableConcept":{"coding":[{"code":"3","display":"Godkjent","system":"http://ehelse.no/fhir/CodeSystem/sfm-medicationstatement-registration-status"}]}},{"url":"type","valueCodeableConcept":{"coding":[{"code":"1","display":"Forskrevet av","system":"http://ehelse.no/fhir/CodeSystem/sfm-performer-roles"}]}},{"url":"provider","valueReference":{"display":"Jesper Odd Hansen, HPR: 7479654","reference":"urn:uuid:17626036-76a6-4cd5-acee-0b5abd512190","type":"http://ehelse.no/fhir/StructureDefinition/sfm-Practitioner"}},{"url":"timestamp","valueDateTime":"2025-01-30T05:31:10.7144619+01:00"}],"url":"http://ehelse.no/fhir/StructureDefinition/sfm-regInfo"},{"extension":[{"url":"genericSubstitutionAccepted","valueBoolean":true}],"url":"http://ehelse.no/fhir/StructureDefinition/sfm-generic-substitution"}],"id":"765607119","identifier":[{"type":{"text":"PLL"},"use":"usual","value":"83bbdf37-712b-4c04-aa9c-4ae400cb9e39"},{"type":{"text":"ReseptId"},"use":"usual","value":"80e290a9-f3d0-44e0-97e3-09b61a8a31b6"}],"medicationReference":{"display":"Ponvory tab 8 mg","reference":"urn:uuid:465f37e7-e5f4-4571-8cdc-57055eaccfa7","type":"http://ehelse.no/fhir/StructureDefinition/sfm-Medication"},"meta":{"profile":["http://ehelse.no/fhir/StructureDefinition/sfm-MedicationStatement"]},"resourceType":"MedicationStatement","status":"active","subject":{"display":"Jeo 53 Test","reference":"urn:uuid:aa2377b7-b9b7-45fa-948b-4d817ecc899d","type":"http://ehelse.no/fhir/StructureDefinition/sfm-Patient"}}},{"fullUrl":"urn:uuid:d1636800-1b2a-4aec-9fc8-90adb183b240","resource":{"dosage":[{"extension":[{"url":"http://ehelse.no/fhir/StructureDefinition/sfm-use","valueCodeableConcept":{"coding":[{"code":"1","display":"Fast","system":"urn:oid:2.16.578.1.12.4.1.1.9101"}]}},{"extension":[{"url":"text","valueString":"MOT MULTIPPEL SKLEROSE"}],"url":"http://ehelse.no/fhir/StructureDefinition/sfm-application-area"}],"sequence":1,"text":"Etter meddelelse på runepinne"}],"extension":[{"extension":[{"url":"reseptdate","valueDate":"2025-01-29"},{"url":"expirationdate","valueDate":"2026-01-28"},{"url":"festUpdate","valueDateTime":"2024-02-21T14:21:52.896561+00:00"},{"url":"guardiantransparencyreservation","valueBoolean":false},{"url":"indoctorsname","valueBoolean":false},{"url":"dssn","valueString":"Etter meddelelse på runepinne"},{"url":"lockedresept","valueBoolean":false},{"url":"numberofpackages","valueDecimal":1},{"url":"reit","valueString":"0"},{"url":"itemgroup","valueCodeableConcept":{"coding":[{"code":"L","display":"Legemiddel","system":"urn:oid:2.16.578.1.12.4.1.1.7402"}]}},{"url":"reimbursementcode","valueCodeableConcept":{"coding":[{"code":"G35","display":"Multippel sklerose","system":"urn:oid:2.16.578.1.12.4.1.1.7110"}]}},{"url":"reimbursementparagraph","valueCodeableConcept":{"coding":[{"code":"950","display":"H-resept","system":"urn:oid:2.16.578.1.12.4.1.1.7427"}]}},{"extension":[{"url":"recallId","valueString":"80e290a9-f3d0-44e0-97e3-09b61a8a31b6"},{"url":"text","valueString":"Årsak: Fornying\r\nMerknad: Forny uten endring"},{"url":"recallcode","valueCodeableConcept":{"coding":[{"code":"1","display":"Fornying","system":"urn:oid:2.16.578.1.12.4.1.1.7500"}]}},{"url":"performed","valueDateTime":"2025-01-30T05:31:10.628+01:00"}],"url":"recallinfo"},{"extension":[{"url":"status","valueCodeableConcept":{"coding":[{"code":"T","display":"Tilbakekalt","system":"urn:oid:2.16.578.1.12.4.1.1.7408"}]}}],"url":"rfstatus"},{"url":"typeresept","valueCodeableConcept":{"coding":[{"code":"E","display":"Eresept","system":"urn:oid:2.16.578.1.12.4.1.1.7491"}]}}],"url":"http://ehelse.no/fhir/StructureDefinition/sfm-reseptamendment"},{"extension":[{"url":"status","valueCodeableConcept":{"coding":[{"code":"3","display":"Godkjent","system":"http://ehelse.no/fhir/CodeSystem/sfm-medicationstatement-registration-status"}]}},{"url":"type","valueCodeableConcept":{"coding":[{"code":"1","display":"Forskrevet av","system":"http://ehelse.no/fhir/CodeSystem/sfm-performer-roles"}]}},{"url":"provider","valueReference":{"display":"Jesper Odd Hansen, HPR: 7479654","reference":"urn:uuid:17626036-76a6-4cd5-acee-0b5abd512190","type":"http://ehelse.no/fhir/StructureDefinition/sfm-Practitioner"}},{"url":"timestamp","valueDateTime":"2025-01-29T08:55:34.9377348+01:00"}],"url":"http://ehelse.no/fhir/StructureDefinition/sfm-regInfo"},{"extension":[{"url":"genericSubstitutionAccepted","valueBoolean":true}],"url":"http://ehelse.no/fhir/StructureDefinition/sfm-generic-substitution"}],"id":"125473652","identifier":[{"type":{"text":"ReseptId"},"use":"usual","value":"122fdcc0-d5c8-418d-88f3-c3f6f49fb42d"}],"medicationReference":{"display":"Ponvory tab 8 mg","reference":"urn:uuid:465f37e7-e5f4-4571-8cdc-57055eaccfa7","type":"http://ehelse.no/fhir/StructureDefinition/sfm-Medication"},"meta":{"profile":["http://ehelse.no/fhir/StructureDefinition/sfm-MedicationStatement"]},"partOf":[{"display":"Ponvory tab 8 mg","reference":"urn:uuid:0d9a9114-22e1-4a0a-9df6-db15dfa6a256","type":"http://ehelse.no/fhir/StructureDefinition/sfm-MedicationStatement"}],"resourceType":"MedicationStatement","status":"completed","subject":{"display":"Jeo 53 Test","reference":"urn:uuid:aa2377b7-b9b7-45fa-948b-4d817ecc899d","type":"http://ehelse.no/fhir/StructureDefinition/sfm-Patient"}}},{"fullUrl":"urn:uuid:17770c85-1d8f-4206-b0db-257874bb0c55","resource":{"dosage":[{"extension":[{"url":"http://ehelse.no/fhir/StructureDefinition/sfm-shortdosage","valueCodeableConcept":{"coding":[{"code":"5507","display":"1+0+0+0","system":"urn:oid:2.16.578.1.12.4.1.1.7478"}]}},{"url":"http://ehelse.no/fhir/StructureDefinition/sfm-use","valueCodeableConcept":{"coding":[{"code":"1","display":"Fast","system":"urn:oid:2.16.578.1.12.4.1.1.9101"}]}},{"extension":[{"url":"text","valueString":"MOT ALLERGI"}],"url":"http://ehelse.no/fhir/StructureDefinition/sfm-application-area"}],"sequence":1,"text":"1 tablett morgen"}],"extension":[{"extension":[{"url":"reseptdate","valueDate":"2025-02-21"},{"url":"expirationdate","valueDate":"2026-02-21"},{"url":"festUpdate","valueDateTime":"2023-12-20T11:54:48.9287539+00:00"},{"url":"dssn","valueString":"1 tablett morgen"},{"url":"numberofpackages","valueDecimal":1},{"url":"reit","valueString":"3"},{"url":"itemgroup","valueCodeableConcept":{"coding":[{"code":"L","display":"Legemiddel","system":"urn:oid:2.16.578.1.12.4.1.1.7402"}]}},{"extension":[{"url":"text","valueString":"Årsak: Seponering\r\nMerknad: Seponering"},{"url":"recallcode","valueCodeableConcept":{"coding":[{"code":"2","display":"Seponering","system":"urn:oid:2.16.578.1.12.4.1.1.7500"}]}},{"url":"performed","valueDateTime":"2025-02-21T11:12:24.938+01:00"}],"url":"recallinfo"},{"extension":[{"url":"status","valueCodeableConcept":{"coding":[{"code":"T","display":"Tilbakekalt","system":"urn:oid:2.16.578.1.12.4.1.1.7408"}]}}],"url":"rfstatus"},{"url":"lastchanged","valueDateTime":"2025-02-21T11:12:13.7325345+01:00"},{"url":"typeresept","valueCodeableConcept":{"coding":[{"code":"E","display":"Eresept","system":"urn:oid:2.16.578.1.12.4.1.1.7491"}]}}],"url":"http://ehelse.no/fhir/StructureDefinition/sfm-reseptamendment"},{"extension":[{"url":"status","valueCodeableConcept":{"coding":[{"code":"3","display":"Godkjent","system":"http://ehelse.no/fhir/CodeSystem/sfm-medicationstatement-registration-status"}]}},{"url":"type","valueCodeableConcept":{"coding":[{"code":"1","display":"Forskrevet av","system":"http://ehelse.no/fhir/CodeSystem/sfm-performer-roles"}]}},{"url":"provider","valueReference":{"display":"Jesper Odd Hansen, HPR: 7479654","reference":"urn:uuid:17626036-76a6-4cd5-acee-0b5abd512190","type":"http://ehelse.no/fhir/StructureDefinition/sfm-Practitioner"}},{"url":"timestamp","valueDateTime":"2025-02-21T11:10:11.8507239+01:00"}],"url":"http://ehelse.no/fhir/StructureDefinition/sfm-regInfo"},{"extension":[{"url":"status","valueCodeableConcept":{"coding":[{"code":"3","display":"Godkjent","system":"http://ehelse.no/fhir/CodeSystem/sfm-medicationstatement-registration-status"}]}},{"url":"type","valueCodeableConcept":{"coding":[{"code":"3","display":"Seponert av","system":"http://ehelse.no/fhir/CodeSystem/sfm-performer-roles"}]}},{"url":"provider","valueReference":{"display":"Jesper Odd Hansen, HPR: 7479654","reference":"urn:uuid:17626036-76a6-4cd5-acee-0b5abd512190","type":"http://ehelse.no/fhir/StructureDefinition/sfm-Practitioner"}},{"url":"timestamp","valueDateTime":"2025-02-21T11:10:11.8507239+01:00"}],"url":"http://ehelse.no/fhir/StructureDefinition/sfm-regInfo"},{"extension":[{"url":"genericSubstitutionAccepted","valueBoolean":true}],"url":"http://ehelse.no/fhir/StructureDefinition/sfm-generic-substitution"},{"extension":[{"url":"timedate","valueDateTime":"2025-02-21T11:12:06.1410082+01:00"},{"url":"reason","valueCodeableConcept":{"coding":[{"code":"P","display":"Pasienten har ikke brukt legemiddelet","system":"urn:oid:2.16.578.1.12.4.1.1.7494"}]}}],"url":"http://ehelse.no/fhir/StructureDefinition/sfm-discontinuation"}],"id":"1179540541","identifier":[{"type":{"text":"PLL"},"use":"usual","value":"869bb412-e29b-439d-968e-99de4d98263e"},{"type":{"text":"ReseptId"},"use":"usual","value":"d9222bae-eefe-401e-9e6b-f59cdbb44a80"}],"medicationReference":{"display":"Aerius tab 5 mg","reference":"urn:uuid:c540762d-00fd-4399-9e96-3210c8210a9b","type":"http://ehelse.no/fhir/StructureDefinition/sfm-Medication"},"meta":{"profile":["http://ehelse.no/fhir/StructureDefinition/sfm-MedicationStatement"]},"resourceType":"MedicationStatement","status":"stopped","subject":{"display":"Jeo 53 Test","reference":"urn:uuid:aa2377b7-b9b7-45fa-948b-4d817ecc899d","type":"http://ehelse.no/fhir/StructureDefinition/sfm-Patient"}}},{"fullUrl":"urn:uuid:00869971-d381-4751-8d26-266145fc34b8","resource":{"dosage":[{"extension":[{"url":"http://ehelse.no/fhir/StructureDefinition/sfm-shortdosage","valueCodeableConcept":{"coding":[{"code":"5507","display":"1+0+0+0","system":"urn:oid:2.16.578.1.12.4.1.1.7478"}]}},{"url":"http://ehelse.no/fhir/StructureDefinition/sfm-use","valueCodeableConcept":{"coding":[{"code":"1","display":"Fast","system":"urn:oid:2.16.578.1.12.4.1.1.9101"}]}},{"extension":[{"url":"text","valueString":"MOT ALLERGI"}],"url":"http://ehelse.no/fhir/StructureDefinition/sfm-application-area"}],"sequence":1,"text":"1 tablett morgen"}],"extension":[{"extension":[{"url":"reseptdate","valueDate":"2025-02-21"},{"url":"expirationdate","valueDate":"2026-02-21"},{"url":"festUpdate","valueDateTime":"2023-12-20T11:54:48.9287539+00:00"},{"url":"dssn","valueString":"1 tablett morgen"},{"url":"numberofpackages","valueDecimal":1},{"url":"reit","valueString":"3"},{"url":"itemgroup","valueCodeableConcept":{"coding":[{"code":"L","display":"Legemiddel","system":"urn:oid:2.16.578.1.12.4.1.1.7402"}]}},{"extension":[{"url":"text","valueString":"Årsak: Seponering"},{"url":"recallcode","valueCodeableConcept":{"coding":[{"code":"2","display":"Seponering","system":"urn:oid:2.16.578.1.12.4.1.1.7500"}]}},{"url":"performed","valueDateTime":"2025-02-21T16:30:17.211+01:00"}],"url":"recallinfo"},{"extension":[{"url":"status","valueCodeableConcept":{"coding":[{"code":"T","display":"Tilbakekalt","system":"urn:oid:2.16.578.1.12.4.1.1.7408"}]}}],"url":"rfstatus"},{"url":"lastchanged","valueDateTime":"2025-02-21T11:29:10.3400789+01:00"},{"url":"typeresept","valueCodeableConcept":{"coding":[{"code":"E","display":"Eresept","system":"urn:oid:2.16.578.1.12.4.1.1.7491"}]}}],"url":"http://ehelse.no/fhir/StructureDefinition/sfm-reseptamendment"},{"extension":[{"url":"status","valueCodeableConcept":{"coding":[{"code":"3","display":"Godkjent","system":"http://ehelse.no/fhir/CodeSystem/sfm-medicationstatement-registration-status"}]}},{"url":"type","valueCodeableConcept":{"coding":[{"code":"3","display":"Seponert av","system":"http://ehelse.no/fhir/CodeSystem/sfm-performer-roles"}]}},{"url":"provider","valueReference":{"display":"Jesper Odd Hansen, HPR: 7479654","reference":"urn:uuid:17626036-76a6-4cd5-acee-0b5abd512190","type":"http://ehelse.no/fhir/StructureDefinition/sfm-Practitioner"}},{"url":"timestamp","valueDateTime":"2025-02-21T11:28:34.6341644+01:00"}],"url":"http://ehelse.no/fhir/StructureDefinition/sfm-regInfo"},{"extension":[{"url":"genericSubstitutionAccepted","valueBoolean":true}],"url":"http://ehelse.no/fhir/StructureDefinition/sfm-generic-substitution"},{"extension":[{"url":"timedate","valueDateTime":"2025-02-21T16:28:59+01:00"},{"url":"reason","valueCodeableConcept":{"coding":[{"code":"A","display":"Avsluttet behandling","system":"urn:oid:2.16.578.1.12.4.1.1.7494"}]}}],"url":"http://ehelse.no/fhir/StructureDefinition/sfm-discontinuation"}],"id":"1475275047","identifier":[{"type":{"text":"PLL"},"use":"usual","value":"19e14abe-19c1-46df-8b0b-1f3ecc85c6ff"},{"type":{"text":"ReseptId"},"use":"usual","value":"992cacb8-032c-4483-b8b6-c237a73a40ad"}],"medicationReference":{"display":"Aerius tab 5 mg","reference":"urn:uuid:c540762d-00fd-4399-9e96-3210c8210a9b","type":"http://ehelse.no/fhir/StructureDefinition/sfm-Medication"},"meta":{"profile":["http://ehelse.no/fhir/StructureDefinition/sfm-MedicationStatement"]},"resourceType":"MedicationStatement","status":"stopped","subject":{"display":"Jeo 53 Test","reference":"urn:uuid:aa2377b7-b9b7-45fa-948b-4d817ecc899d","type":"http://ehelse.no/fhir/StructureDefinition/sfm-Patient"}}},{"fullUrl":"urn:uuid:20ba391b-4f9f-4493-856b-10d9fb6bdc0d","resource":{"code":{"coding":[{"code":"ID_C292E27A-066A-40CF-8845-866E7C31219E","display":"Omeprazol enterotab 10 mg","system":"http://ehelse.no/fhir/CodeSystem/FEST"}]},"extension":[{"extension":[{"url":"prescriptiongroup","valueCodeableConcept":{"coding":[{"code":"C","display":"Reseptgruppe C","system":"urn:oid:2.16.578.1.12.4.1.1.7421"}]}}],"url":"http://hl7.no/fhir/StructureDefinition/no-basis-prescriptiongroup"},{"extension":[{"url":"registreringstype","valueCodeableConcept":{"coding":[{"code":"1","display":"Legemiddelvirkestoff","system":"http://ehelse.no/fhir/CodeSystem/sfm-festregistrationtype"}]}}],"url":"http://ehelse.no/fhir/StructureDefinition/sfm-medicationdetails"}],"form":{"coding":[{"code":"28","display":"Enterotablett","system":"urn:oid:2.16.578.1.12.4.1.1.7448"}]},"id":"1111037420","identifier":[{"type":{"text":"identifier"},"use":"official","value":"ID_C292E27A-066A-40CF-8845-866E7C31219E"}],"meta":{"profile":["http://ehelse.no/fhir/StructureDefinition/sfm-Medication"]},"resourceType":"Medication","status":"active"}},{"fullUrl":"urn:uuid:88f1d922-2191-4f7a-b57c-bd75548bb768","resource":{"dosage":[{"extension":[{"url":"http://ehelse.no/fhir/StructureDefinition/sfm-shortdosage","valueCodeableConcept":{"coding":[{"code":"5507","display":"1+0+0+0","system":"urn:oid:2.16.578.1.12.4.1.1.7478"}]}},{"url":"http://ehelse.no/fhir/StructureDefinition/sfm-use","valueCodeableConcept":{"coding":[{"code":"1","display":"Fast","system":"urn:oid:2.16.578.1.12.4.1.1.9101"}]}},{"extension":[{"url":"text","valueString":"MOT SPISERØRSSYKDOM"}],"url":"http://ehelse.no/fhir/StructureDefinition/sfm-application-area"}],"sequence":1,"text":"1 tablett morgen"}],"extension":[{"extension":[{"url":"reseptdate","valueDate":"2025-02-05"},{"url":"expirationdate","valueDate":"2026-02-04"},{"url":"festUpdate","valueDateTime":"2022-09-08T13:34:11+00:00"},{"url":"guardiantransparencyreservation","valueBoolean":false},{"url":"indoctorsname","valueBoolean":false},{"url":"dssn","valueString":"1 tablett morgen"},{"url":"lockedresept","valueBoolean":false},{"url":"amount","valueQuantity":{"unit":"stykk","value":100}},{"url":"reit","valueString":"0"},{"url":"itemgroup","valueCodeableConcept":{"coding":[{"code":"L","display":"Legemiddel","system":"urn:oid:2.16.578.1.12.4.1.1.7402"}]}},{"url":"reimbursementparagraph","valueCodeableConcept":{"coding":[{"code":"300","display":"§5-14 §3","system":"urn:oid:2.16.578.1.12.4.1.1.7427"}]}},{"extension":[{"url":"starttime","valueDate":"2025-02-10"},{"extension":[{"url":"amount","valueQuantity":{"unit":"tablett","value":1}},{"url":"interval","valueQuantity":{"unit":"Døgn","value":1}},{"url":"accurate","valueBoolean":false},{"url":"timerange","valueCodeableConcept":{"coding":[{"code":"1","display":"Morgen","system":"urn:oid:2.16.578.1.12.4.1.1.8325"}]}}],"url":"repeatingdosage"}],"url":"ereseptdosing"},{"extension":[{"url":"status","valueCodeableConcept":{"coding":[{"code":"E","display":"Ekspederbar","system":"urn:oid:2.16.578.1.12.4.1.1.7408"}]}}],"url":"rfstatus"},{"url":"lastchanged","valueDateTime":"2025-02-10T14:46:00.8673423+01:00"},{"url":"typeresept","valueCodeableConcept":{"coding":[{"code":"E","display":"Eresept","system":"urn:oid:2.16.578.1.12.4.1.1.7491"}]}}],"url":"http://ehelse.no/fhir/StructureDefinition/sfm-reseptamendment"},{"url":"effectiveDateTime","valueDate":"2025-02-05"},{"extension":[{"url":"status","valueCodeableConcept":{"coding":[{"code":"3","display":"Godkjent","system":"http://ehelse.no/fhir/CodeSystem/sfm-medicationstatement-registration-status"}]}},{"url":"type","valueCodeableConcept":{"coding":[{"code":"1","display":"Forskrevet av","system":"http://ehelse.no/fhir/CodeSystem/sfm-performer-roles"}]}},{"url":"provider","valueReference":{"display":"Jesper Odd Hansen, HPR: 7479654","reference":"urn:uuid:17626036-76a6-4cd5-acee-0b5abd512190","type":"http://ehelse.no/fhir/StructureDefinition/sfm-Practitioner"}},{"url":"timestamp","valueDateTime":"2025-02-05T14:02:36.0988964+01:00"}],"url":"http://ehelse.no/fhir/StructureDefinition/sfm-regInfo"},{"extension":[{"url":"genericSubstitutionAccepted","valueBoolean":true}],"url":"http://ehelse.no/fhir/StructureDefinition/sfm-generic-substitution"}],"id":"1648042515","identifier":[{"type":{"text":"PLL"},"use":"usual","value":"67ca3ee9-7699-49fe-8ec7-692852d15cdf"},{"type":{"text":"ReseptId"},"use":"usual","value":"2d2d196f-7644-4e76-b2d9-ecd505854cf6"}],"medicationReference":{"display":"Omeprazol enterotab 10 mg","reference":"urn:uuid:20ba391b-4f9f-4493-856b-10d9fb6bdc0d","type":"http://ehelse.no/fhir/StructureDefinition/sfm-Medication"},"meta":{"profile":["http://ehelse.no/fhir/StructureDefinition/sfm-MedicationStatement"]},"resourceType":"MedicationStatement","status":"active","subject":{"display":"Jeo 53 Test","reference":"urn:uuid:aa2377b7-b9b7-45fa-948b-4d817ecc899d","type":"http://ehelse.no/fhir/StructureDefinition/sfm-Patient"}}},{"fullUrl":"urn:uuid:9baadc20-3c86-4d3a-ac47-8c74a4323fc5","resource":{"dosage":[{"extension":[{"url":"http://ehelse.no/fhir/StructureDefinition/sfm-shortdosage","valueCodeableConcept":{"coding":[{"code":"5507","display":"1+0+0+0","system":"urn:oid:2.16.578.1.12.4.1.1.7478"}]}},{"url":"http://ehelse.no/fhir/StructureDefinition/sfm-use","valueCodeableConcept":{"coding":[{"code":"1","display":"Fast","system":"urn:oid:2.16.578.1.12.4.1.1.9101"}]}},{"extension":[{"url":"text","valueString":"BLODTRYKKSMEDISIN"}],"url":"http://ehelse.no/fhir/StructureDefinition/sfm-application-area"}],"sequence":1,"text":"1 tablett morgen"}],"extension":[{"extension":[{"url":"reseptdate","valueDate":"2025-02-05"},{"url":"expirationdate","valueDate":"2026-02-04"},{"url":"festUpdate","valueDateTime":"2022-09-08T13:34:11+00:00"},{"url":"guardiantransparencyreservation","valueBoolean":false},{"url":"indoctorsname","valueBoolean":false},{"url":"dssn","valueString":"1 tablett morgen"},{"url":"lockedresept","valueBoolean":false},{"url":"numberofpackages","valueDecimal":1},{"url":"reit","valueString":"0"},{"url":"itemgroup","valueCodeableConcept":{"coding":[{"code":"L","display":"Legemiddel","system":"urn:oid:2.16.578.1.12.4.1.1.7402"}]}},{"url":"reimbursementparagraph","valueCodeableConcept":{"coding":[{"code":"400","display":"§5-14 §4","system":"urn:oid:2.16.578.1.12.4.1.1.7427"}]}},{"extension":[{"url":"starttime","valueDate":"2025-02-05"},{"extension":[{"url":"amount","valueQuantity":{"unit":"tablett","value":1}},{"url":"interval","valueQuantity":{"unit":"Døgn","value":1}},{"url":"accurate","valueBoolean":false},{"url":"timerange","valueCodeableConcept":{"coding":[{"code":"1","display":"Morgen","system":"urn:oid:2.16.578.1.12.4.1.1.8325"}]}}],"url":"repeatingdosage"}],"url":"ereseptdosing"},{"extension":[{"url":"recallId","valueString":"0a5f131b-1413-4a27-9780-16ea05efb8f9"},{"url":"text","valueString":"Årsak: Fornying med endring\r\nMerknad: Forny med endring"},{"url":"recallcode","valueCodeableConcept":{"coding":[{"code":"3","display":"Fornying med endring","system":"urn:oid:2.16.578.1.12.4.1.1.7500"}]}},{"url":"performed","valueDateTime":"2025-02-05T14:05:49.778+01:00"}],"url":"recallinfo"},{"extension":[{"url":"status","valueCodeableConcept":{"coding":[{"code":"T","display":"Tilbakekalt","system":"urn:oid:2.16.578.1.12.4.1.1.7408"}]}}],"url":"rfstatus"},{"url":"typeresept","valueCodeableConcept":{"coding":[{"code":"E","display":"Eresept","system":"urn:oid:2.16.578.1.12.4.1.1.7491"}]}}],"url":"http://ehelse.no/fhir/StructureDefinition/sfm-reseptamendment"},{"extension":[{"url":"status","valueCodeableConcept":{"coding":[{"code":"3","display":"Godkjent","system":"http://ehelse.no/fhir/CodeSystem/sfm-medicationstatement-registration-status"}]}},{"url":"type","valueCodeableConcept":{"coding":[{"code":"1","display":"Forskrevet av","system":"http://ehelse.no/fhir/CodeSystem/sfm-performer-roles"}]}},{"url":"provider","valueReference":{"display":"Jesper Odd Hansen, HPR: 7479654","reference":"urn:uuid:17626036-76a6-4cd5-acee-0b5abd512190","type":"http://ehelse.no/fhir/StructureDefinition/sfm-Practitioner"}},{"url":"timestamp","valueDateTime":"2025-02-05T13:43:25.8683034+01:00"}],"url":"http://ehelse.no/fhir/StructureDefinition/sfm-regInfo"},{"extension":[{"url":"genericSubstitutionAccepted","valueBoolean":true}],"url":"http://ehelse.no/fhir/StructureDefinition/sfm-generic-substitution"}],"id":"1777107635","identifier":[{"type":{"text":"ReseptId"},"use":"usual","value":"fd219048-8866-4cb3-a244-ade49c8fb820"}],"medicationReference":{"display":"Furix tab 20 mg","reference":"urn:uuid:0441af9a-9fbc-4a3f-995b-5e7953679b41","type":"http://ehelse.no/fhir/StructureDefinition/sfm-Medication"},"meta":{"profile":["http://ehelse.no/fhir/StructureDefinition/sfm-MedicationStatement"]},"resourceType":"MedicationStatement","status":"active","subject":{"display":"Jeo 53 Test","reference":"urn:uuid:aa2377b7-b9b7-45fa-948b-4d817ecc899d","type":"http://ehelse.no/fhir/StructureDefinition/sfm-Patient"}}},{"fullUrl":"urn:uuid:0e20cc03-69a1-46e5-8308-3937d4b15d34","resource":{"code":{"coding":[{"code":"485342","display":"Zyrtec tab 10 mg","system":"http://ehelse.no/fhir/CodeSystem/FEST"}]},"extension":[{"extension":[{"url":"prescriptiongroup","valueCodeableConcept":{"coding":[{"code":"CF","display":"Reseptgruppe CF","system":"urn:oid:2.16.578.1.12.4.1.1.7421"}]}}],"url":"http://hl7.no/fhir/StructureDefinition/no-basis-prescriptiongroup"},{"extension":[{"url":"registreringstype","valueCodeableConcept":{"coding":[{"code":"3","display":"Legemiddelpakning","system":"http://ehelse.no/fhir/CodeSystem/sfm-festregistrationtype"}]}},{"extension":[{"url":"name","valueString":"Zyrtec"},{"url":"packingsize","valueString":"100"},{"url":"packingunit","valueCodeableConcept":{"coding":[{"code":"stk","display":"stykk","system":"urn:oid:2.16.578.1.12.4.1.1.7452"}]}}],"url":"packinginfoprescription"}],"url":"http://ehelse.no/fhir/StructureDefinition/sfm-medicationdetails"}],"form":{"coding":[{"code":"53","display":"Tablett","system":"urn:oid:2.16.578.1.12.4.1.1.7448"}]},"id":"1601628248","identifier":[{"type":{"text":"identifier"},"use":"official","value":"485342"}],"meta":{"profile":["http://ehelse.no/fhir/StructureDefinition/sfm-Medication"]},"resourceType":"Medication","status":"active"}},{"fullUrl":"urn:uuid:53721af5-7833-4f88-a17c-10968df1d84a","resource":{"dosage":[{"extension":[{"url":"http://ehelse.no/fhir/StructureDefinition/sfm-shortdosage","valueCodeableConcept":{"coding":[{"code":"5507","display":"1+0+0+0","system":"urn:oid:2.16.578.1.12.4.1.1.7478"}]}},{"url":"http://ehelse.no/fhir/StructureDefinition/sfm-use","valueCodeableConcept":{"coding":[{"code":"1","display":"Fast","system":"urn:oid:2.16.578.1.12.4.1.1.9101"}]}},{"extension":[{"url":"text","valueString":"ALLERGIMEDISIN"}],"url":"http://ehelse.no/fhir/StructureDefinition/sfm-application-area"}],"sequence":1,"text":"1 tablett morgen"}],"extension":[{"extension":[{"url":"reseptdate","valueDate":"2025-02-05"},{"url":"expirationdate","valueDate":"2026-02-04"},{"url":"festUpdate","valueDateTime":"2022-09-08T13:34:11+00:00"},{"url":"guardiantransparencyreservation","valueBoolean":false},{"url":"indoctorsname","valueBoolean":false},{"url":"dssn","valueString":"1 tablett morgen"},{"url":"lockedresept","valueBoolean":false},{"url":"numberofpackages","valueDecimal":1},{"url":"reit","valueString":"0"},{"url":"itemgroup","valueCodeableConcept":{"coding":[{"code":"L","display":"Legemiddel","system":"urn:oid:2.16.578.1.12.4.1.1.7402"}]}},{"url":"reimbursementcode","valueCodeableConcept":{"coding":[{"code":"J30","display":"Vasomotorisk og allergisk rinitt","system":"urn:oid:2.16.578.1.12.4.1.1.7435"}]}},{"url":"reimbursementparagraph","valueCodeableConcept":{"coding":[{"code":"200","display":"§5-14 §2","system":"urn:oid:2.16.578.1.12.4.1.1.7427"}]}},{"extension":[{"url":"starttime","valueDate":"2025-02-05"},{"extension":[{"url":"amount","valueQuantity":{"unit":"tablett","value":1}},{"url":"interval","valueQuantity":{"unit":"Døgn","value":1}},{"url":"accurate","valueBoolean":false},{"url":"timerange","valueCodeableConcept":{"coding":[{"code":"1","display":"Morgen","system":"urn:oid:2.16.578.1.12.4.1.1.8325"}]}}],"url":"repeatingdosage"}],"url":"ereseptdosing"},{"extension":[{"url":"status","valueCodeableConcept":{"coding":[{"code":"E","display":"Ekspederbar","system":"urn:oid:2.16.578.1.12.4.1.1.7408"}]}}],"url":"rfstatus"},{"url":"lastchanged","valueDateTime":"2025-02-05T13:30:15.3182211+01:00"},{"url":"typeresept","valueCodeableConcept":{"coding":[{"code":"E","display":"Eresept","system":"urn:oid:2.16.578.1.12.4.1.1.7491"}]}}],"url":"http://ehelse.no/fhir/StructureDefinition/sfm-reseptamendment"},{"url":"effectiveDateTime","valueDate":"2025-02-05"},{"extension":[{"url":"status","valueCodeableConcept":{"coding":[{"code":"3","display":"Godkjent","system":"http://ehelse.no/fhir/CodeSystem/sfm-medicationstatement-registration-status"}]}},{"url":"type","valueCodeableConcept":{"coding":[{"code":"1","display":"Forskrevet av","system":"http://ehelse.no/fhir/CodeSystem/sfm-performer-roles"}]}},{"url":"provider","valueReference":{"display":"Jesper Odd Hansen, HPR: 7479654","reference":"urn:uuid:17626036-76a6-4cd5-acee-0b5abd512190","type":"http://ehelse.no/fhir/StructureDefinition/sfm-Practitioner"}},{"url":"timestamp","valueDateTime":"2025-02-05T13:30:19.5021326+01:00"}],"url":"http://ehelse.no/fhir/StructureDefinition/sfm-regInfo"},{"extension":[{"url":"genericSubstitutionAccepted","valueBoolean":true}],"url":"http://ehelse.no/fhir/StructureDefinition/sfm-generic-substitution"}],"id":"1841598981","identifier":[{"type":{"text":"PLL"},"use":"usual","value":"91b1ebb3-997f-4d13-a24b-44616fe4f221"},{"type":{"text":"ReseptId"},"use":"usual","value":"a58de148-0f91-487e-b985-da13433c2cd5"}],"medicationReference":{"display":"Zyrtec tab 10 mg","reference":"urn:uuid:0e20cc03-69a1-46e5-8308-3937d4b15d34","type":"http://ehelse.no/fhir/StructureDefinition/sfm-Medication"},"meta":{"profile":["http://ehelse.no/fhir/StructureDefinition/sfm-MedicationStatement"]},"resourceType":"MedicationStatement","status":"active","subject":{"display":"Jeo 53 Test","reference":"urn:uuid:aa2377b7-b9b7-45fa-948b-4d817ecc899d","type":"http://ehelse.no/fhir/StructureDefinition/sfm-Patient"}}},{"fullUrl":"urn:uuid:cbb196c3-d973-4850-a3d2-13ab8c0998ba","resource":{"code":{"coding":[{"code":"ID_0D610FD0-F9C0-4841-9A08-283BFB3DA6E2","display":"Dolutegravir tab 50 mg","system":"http://ehelse.no/fhir/CodeSystem/FEST"}]},"extension":[{"extension":[{"url":"prescriptiongroup","valueCodeableConcept":{"coding":[{"code":"C","display":"Reseptgruppe C","system":"urn:oid:2.16.578.1.12.4.1.1.7421"}]}}],"url":"http://hl7.no/fhir/StructureDefinition/no-basis-prescriptiongroup"},{"extension":[{"url":"registreringstype","valueCodeableConcept":{"coding":[{"code":"1","display":"Legemiddelvirkestoff","system":"http://ehelse.no/fhir/CodeSystem/sfm-festregistrationtype"}]}}],"url":"http://ehelse.no/fhir/StructureDefinition/sfm-medicationdetails"}],"form":{"coding":[{"code":"53","display":"Tablett","system":"urn:oid:2.16.578.1.12.4.1.1.7448"}]},"id":"1411510890","identifier":[{"type":{"text":"identifier"},"use":"official","value":"ID_0D610FD0-F9C0-4841-9A08-283BFB3DA6E2"}],"meta":{"profile":["http://ehelse.no/fhir/StructureDefinition/sfm-Medication"]},"resourceType":"Medication","status":"active"}},{"fullUrl":"urn:uuid:051c41b0-8b61-44d7-a72c-73571c863de8","resource":{"basedOn":[{"display":"Dolutegravir tab 50 mg","reference":"urn:uuid:5df48664-c160-4b96-a48b-157369843b75","type":"http://ehelse.no/fhir/StructureDefinition/sfm-MedicationStatement"}],"dosage":[{"extension":[{"url":"http://ehelse.no/fhir/StructureDefinition/sfm-use","valueCodeableConcept":{"coding":[{"code":"1","display":"Fast","system":"urn:oid:2.16.578.1.12.4.1.1.9101"}]}},{"extension":[{"url":"text","valueString":"MOT INFEKSJON"}],"url":"http://ehelse.no/fhir/StructureDefinition/sfm-application-area"}],"sequence":1,"text":"avf fork 1"}],"extension":[{"extension":[{"url":"reseptdate","valueDate":"2025-02-19"},{"url":"expirationdate","valueDate":"2026-02-19"},{"url":"festUpdate","valueDateTime":"2023-12-20T11:54:48.9287539+00:00"},{"url":"dssn","valueString":"avf fork 1"},{"url":"amount","valueQuantity":{"unit":"stykk","value":63}},{"url":"reit","valueString":"0"},{"url":"itemgroup","valueCodeableConcept":{"coding":[{"code":"L","display":"Legemiddel","system":"urn:oid:2.16.578.1.12.4.1.1.7402"}]}},{"extension":[{"url":"status","valueCodeableConcept":{"coding":[{"code":"E","display":"Ekspederbar","system":"urn:oid:2.16.578.1.12.4.1.1.7408"}]}}],"url":"rfstatus"},{"url":"lastchanged","valueDateTime":"2025-02-19T17:24:13+01:00"},{"url":"typeresept","valueCodeableConcept":{"coding":[{"code":"E","display":"Eresept","system":"urn:oid:2.16.578.1.12.4.1.1.7491"}]}}],"url":"http://ehelse.no/fhir/StructureDefinition/sfm-reseptamendment"},{"extension":[{"url":"status","valueCodeableConcept":{"coding":[{"code":"3","display":"Godkjent","system":"http://ehelse.no/fhir/CodeSystem/sfm-medicationstatement-registration-status"}]}},{"url":"type","valueCodeableConcept":{"coding":[{"code":"1","display":"Forskrevet av","system":"http://ehelse.no/fhir/CodeSystem/sfm-performer-roles"}]}},{"url":"provider","valueReference":{"display":"Jesper Odd Hansen, HPR: 7479654","reference":"urn:uuid:17626036-76a6-4cd5-acee-0b5abd512190","type":"http://ehelse.no/fhir/StructureDefinition/sfm-Practitioner"}},{"url":"timestamp","valueDateTime":"2025-02-19T17:24:17.0446119+01:00"}],"url":"http://ehelse.no/fhir/StructureDefinition/sfm-regInfo"},{"extension":[{"url":"genericSubstitutionAccepted","valueBoolean":true}],"url":"http://ehelse.no/fhir/StructureDefinition/sfm-generic-substitution"}],"id":"490081364","identifier":[{"type":{"text":"PLL"},"use":"usual","value":"236d5fc2-e90c-4e0a-9737-7afaf9a44b6e"},{"type":{"text":"ReseptId"},"use":"usual","value":"2042e773-1aa2-4dc0-8154-733e56dda954"}],"medicationReference":{"display":"Dolutegravir tab 50 mg","reference":"urn:uuid:cbb196c3-d973-4850-a3d2-13ab8c0998ba","type":"http://ehelse.no/fhir/StructureDefinition/sfm-Medication"},"meta":{"profile":["http://ehelse.no/fhir/StructureDefinition/sfm-MedicationStatement"]},"resourceType":"MedicationStatement","status":"active","subject":{"display":"Jeo 53 Test","reference":"urn:uuid:aa2377b7-b9b7-45fa-948b-4d817ecc899d","type":"http://ehelse.no/fhir/StructureDefinition/sfm-Patient"}}},{"fullUrl":"urn:uuid:5df48664-c160-4b96-a48b-157369843b75","resource":{"basedOn":[{"display":"Dolutegravir tab 50 mg","reference":"urn:uuid:5ae2ea24-3d33-4c1a-be22-132ef9d49132","type":"http://ehelse.no/fhir/StructureDefinition/sfm-MedicationStatement"}],"dosage":[{"extension":[{"url":"http://ehelse.no/fhir/StructureDefinition/sfm-use","valueCodeableConcept":{"coding":[{"code":"1","display":"Fast","system":"urn:oid:2.16.578.1.12.4.1.1.9101"}]}},{"extension":[{"url":"text","valueString":"MOT INFEKSJON"}],"url":"http://ehelse.no/fhir/StructureDefinition/sfm-application-area"}],"sequence":1,"text":"amt2"}],"extension":[{"extension":[{"url":"reseptdate","valueDate":"2025-02-19"},{"url":"expirationdate","valueDate":"2026-02-18"},{"url":"festUpdate","valueDateTime":"2025-02-11T16:15:08+00:00"},{"url":"guardiantransparencyreservation","valueBoolean":false},{"url":"indoctorsname","valueBoolean":false},{"url":"dssn","valueString":"amt2"},{"url":"lockedresept","valueBoolean":false},{"url":"amount","valueQuantity":{"unit":"stykk","value":63}},{"url":"reit","valueString":"0"},{"url":"itemgroup","valueCodeableConcept":{"coding":[{"code":"L","display":"Legemiddel","system":"urn:oid:2.16.578.1.12.4.1.1.7402"}]}},{"url":"reimbursementcode","valueCodeableConcept":{"coding":[{"code":"D3751","display":"Svulst med klinisk usikkert malignitetspotensial i endetarm","system":"urn:oid:2.16.578.1.12.4.1.1.7110"}]}},{"url":"reimbursementparagraph","valueCodeableConcept":{"coding":[{"code":"950","display":"H-resept","system":"urn:oid:2.16.578.1.12.4.1.1.7427"}]}},{"extension":[{"url":"recallId","valueString":"2042e773-1aa2-4dc0-8154-733e56dda954"},{"url":"text","valueString":"Årsak: Fornying med endring\r\nMerknad: Forny med endring"},{"url":"recallcode","valueCodeableConcept":{"coding":[{"code":"3","display":"Fornying med endring","system":"urn:oid:2.16.578.1.12.4.1.1.7500"}]}},{"url":"performed","valueDateTime":"2025-02-19T17:24:17.008+01:00"}],"url":"recallinfo"},{"extension":[{"url":"status","valueCodeableConcept":{"coding":[{"code":"T","display":"Tilbakekalt","system":"urn:oid:2.16.578.1.12.4.1.1.7408"}]}}],"url":"rfstatus"},{"url":"typeresept","valueCodeableConcept":{"coding":[{"code":"E","display":"Eresept","system":"urn:oid:2.16.578.1.12.4.1.1.7491"}]}}],"url":"http://ehelse.no/fhir/StructureDefinition/sfm-reseptamendment"},{"extension":[{"url":"status","valueCodeableConcept":{"coding":[{"code":"3","display":"Godkjent","system":"http://ehelse.no/fhir/CodeSystem/sfm-medicationstatement-registration-status"}]}},{"url":"type","valueCodeableConcept":{"coding":[{"code":"1","display":"Forskrevet av","system":"http://ehelse.no/fhir/CodeSystem/sfm-performer-roles"}]}},{"url":"provider","valueReference":{"display":"Jesper Odd Hansen, HPR: 7479654","reference":"urn:uuid:17626036-76a6-4cd5-acee-0b5abd512190","type":"http://ehelse.no/fhir/StructureDefinition/sfm-Practitioner"}},{"url":"timestamp","valueDateTime":"2025-02-19T17:22:58.4650882+01:00"}],"url":"http://ehelse.no/fhir/StructureDefinition/sfm-regInfo"},{"extension":[{"url":"genericSubstitutionAccepted","valueBoolean":true}],"url":"http://ehelse.no/fhir/StructureDefinition/sfm-generic-substitution"}],"id":"582515356","identifier":[{"type":{"text":"ReseptId"},"use":"usual","value":"f50d83d7-4b7a-45e2-9ce0-51561c880de6"}],"medicationReference":{"display":"Dolutegravir tab 50 mg","reference":"urn:uuid:cbb196c3-d973-4850-a3d2-13ab8c0998ba","type":"http://ehelse.no/fhir/StructureDefinition/sfm-Medication"},"meta":{"profile":["http://ehelse.no/fhir/StructureDefinition/sfm-MedicationStatement"]},"partOf":[{"display":"Dolutegravir tab 50 mg","reference":"urn:uuid:051c41b0-8b61-44d7-a72c-73571c863de8","type":"http://ehelse.no/fhir/StructureDefinition/sfm-MedicationStatement"}],"resourceType":"MedicationStatement","status":"completed","subject":{"display":"Jeo 53 Test","reference":"urn:uuid:aa2377b7-b9b7-45fa-948b-4d817ecc899d","type":"http://ehelse.no/fhir/StructureDefinition/sfm-Patient"}}},{"fullUrl":"urn:uuid:5ae2ea24-3d33-4c1a-be22-132ef9d49132","resource":{"dosage":[{"extension":[{"url":"http://ehelse.no/fhir/StructureDefinition/sfm-use","valueCodeableConcept":{"coding":[{"code":"1","display":"Fast","system":"urn:oid:2.16.578.1.12.4.1.1.9101"}]}},{"extension":[{"url":"text","valueString":"MOT INFEKSJON"}],"url":"http://ehelse.no/fhir/StructureDefinition/sfm-application-area"}],"sequence":1,"text":"amt"}],"extension":[{"extension":[{"url":"reseptdate","valueDate":"2025-02-19"},{"url":"expirationdate","valueDate":"2026-02-19"},{"url":"festUpdate","valueDateTime":"2023-12-20T11:54:48.9287539+00:00"},{"url":"dssn","valueString":"amt"},{"url":"amount","valueQuantity":{"unit":"stykk","value":63}},{"url":"reit","valueString":"0"},{"url":"itemgroup","valueCodeableConcept":{"coding":[{"code":"L","display":"Legemiddel","system":"urn:oid:2.16.578.1.12.4.1.1.7402"}]}},{"extension":[{"url":"recallId","valueString":"f50d83d7-4b7a-45e2-9ce0-51561c880de6"},{"url":"text","valueString":"Årsak: Fornying med endring\r\nMerknad: Forny med endring"},{"url":"recallcode","valueCodeableConcept":{"coding":[{"code":"3","display":"Fornying med endring","system":"urn:oid:2.16.578.1.12.4.1.1.7500"}]}},{"url":"performed","valueDateTime":"2025-02-19T17:22:58.442+01:00"}],"url":"recallinfo"},{"extension":[{"url":"status","valueCodeableConcept":{"coding":[{"code":"T","display":"Tilbakekalt","system":"urn:oid:2.16.578.1.12.4.1.1.7408"}]}}],"url":"rfstatus"},{"url":"typeresept","valueCodeableConcept":{"coding":[{"code":"E","display":"Eresept","system":"urn:oid:2.16.578.1.12.4.1.1.7491"}]}}],"url":"http://ehelse.no/fhir/StructureDefinition/sfm-reseptamendment"},{"extension":[{"url":"status","valueCodeableConcept":{"coding":[{"code":"3","display":"Godkjent","system":"http://ehelse.no/fhir/CodeSystem/sfm-medicationstatement-registration-status"}]}},{"url":"type","valueCodeableConcept":{"coding":[{"code":"1","display":"Forskrevet av","system":"http://ehelse.no/fhir/CodeSystem/sfm-performer-roles"}]}},{"url":"provider","valueReference":{"display":"Jesper Odd Hansen, HPR: 7479654","reference":"urn:uuid:17626036-76a6-4cd5-acee-0b5abd512190","type":"http://ehelse.no/fhir/StructureDefinition/sfm-Practitioner"}},{"url":"timestamp","valueDateTime":"2025-02-19T17:20:53.0449039+01:00"}],"url":"http://ehelse.no/fhir/StructureDefinition/sfm-regInfo"},{"extension":[{"url":"genericSubstitutionAccepted","valueBoolean":true}],"url":"http://ehelse.no/fhir/StructureDefinition/sfm-generic-substitution"}],"id":"1065479819","identifier":[{"type":{"text":"ReseptId"},"use":"usual","value":"ab3d5e86-871e-4971-ad33-871a23b7c440"}],"medicationReference":{"display":"Dolutegravir tab 50 mg","reference":"urn:uuid:cbb196c3-d973-4850-a3d2-13ab8c0998ba","type":"http://ehelse.no/fhir/StructureDefinition/sfm-Medication"},"meta":{"profile":["http://ehelse.no/fhir/StructureDefinition/sfm-MedicationStatement"]},"partOf":[{"display":"Dolutegravir tab 50 mg","reference":"urn:uuid:5df48664-c160-4b96-a48b-157369843b75","type":"http://ehelse.no/fhir/StructureDefinition/sfm-MedicationStatement"}],"resourceType":"MedicationStatement","status":"completed","subject":{"display":"Jeo 53 Test","reference":"urn:uuid:aa2377b7-b9b7-45fa-948b-4d817ecc899d","type":"http://ehelse.no/fhir/StructureDefinition/sfm-Patient"}}},{"fullUrl":"urn:uuid:698c9d09-4f8c-4c5c-b717-517b95ebfb96","resource":{"dosage":[{"extension":[{"url":"http://ehelse.no/fhir/StructureDefinition/sfm-use","valueCodeableConcept":{"coding":[{"code":"1","display":"Fast","system":"urn:oid:2.16.578.1.12.4.1.1.9101"}]}},{"extension":[{"url":"text","valueString":"MOT INFEKSJON"}],"url":"http://ehelse.no/fhir/StructureDefinition/sfm-application-area"}],"sequence":1,"text":"amvt fork 2"}],"extension":[{"extension":[{"url":"reseptdate","valueDate":"2025-02-19"},{"url":"expirationdate","valueDate":"2026-02-18"},{"url":"festUpdate","valueDateTime":"2025-02-11T16:15:08+00:00"},{"url":"guardiantransparencyreservation","valueBoolean":false},{"url":"indoctorsname","valueBoolean":false},{"url":"dssn","valueString":"amvt fork 2"},{"url":"lockedresept","valueBoolean":false},{"url":"amount","valueQuantity":{"unit":"stykk","value":63}},{"url":"reit","valueString":"0"},{"url":"itemgroup","valueCodeableConcept":{"coding":[{"code":"L","display":"Legemiddel","system":"urn:oid:2.16.578.1.12.4.1.1.7402"}]}},{"url":"reimbursementcode","valueCodeableConcept":{"coding":[{"code":"D3751","display":"Svulst med klinisk usikkert malignitetspotensial i endetarm","system":"urn:oid:2.16.578.1.12.4.1.1.7110"}]}},{"url":"reimbursementparagraph","valueCodeableConcept":{"coding":[{"code":"950","display":"H-resept","system":"urn:oid:2.16.578.1.12.4.1.1.7427"}]}},{"extension":[{"url":"text","valueString":"Årsak: Seponering\r\nMerknad: Seponering"},{"url":"recallcode","valueCodeableConcept":{"coding":[{"code":"2","display":"Seponering","system":"urn:oid:2.16.578.1.12.4.1.1.7500"}]}},{"url":"performed","valueDateTime":"2025-02-19T18:13:38.745+01:00"}],"url":"recallinfo"},{"extension":[{"url":"status","valueCodeableConcept":{"coding":[{"code":"T","display":"Tilbakekalt","system":"urn:oid:2.16.578.1.12.4.1.1.7408"}]}}],"url":"rfstatus"},{"url":"lastchanged","valueDateTime":"2025-02-19T18:13:33.4873876+01:00"},{"url":"typeresept","valueCodeableConcept":{"coding":[{"code":"E","display":"Eresept","system":"urn:oid:2.16.578.1.12.4.1.1.7491"}]}}],"url":"http://ehelse.no/fhir/StructureDefinition/sfm-reseptamendment"},{"extension":[{"url":"status","valueCodeableConcept":{"coding":[{"code":"3","display":"Godkjent","system":"http://ehelse.no/fhir/CodeSystem/sfm-medicationstatement-registration-status"}]}},{"url":"type","valueCodeableConcept":{"coding":[{"code":"1","display":"Forskrevet av","system":"http://ehelse.no/fhir/CodeSystem/sfm-performer-roles"}]}},{"url":"provider","valueReference":{"display":"Jesper Odd Hansen, HPR: 7479654","reference":"urn:uuid:17626036-76a6-4cd5-acee-0b5abd512190","type":"http://ehelse.no/fhir/StructureDefinition/sfm-Practitioner"}},{"url":"timestamp","valueDateTime":"2025-02-19T17:25:03.2439589+01:00"}],"url":"http://ehelse.no/fhir/StructureDefinition/sfm-regInfo"},{"extension":[{"url":"status","valueCodeableConcept":{"coding":[{"code":"3","display":"Godkjent","system":"http://ehelse.no/fhir/CodeSystem/sfm-medicationstatement-registration-status"}]}},{"url":"type","valueCodeableConcept":{"coding":[{"code":"3","display":"Seponert av","system":"http://ehelse.no/fhir/CodeSystem/sfm-performer-roles"}]}},{"url":"provider","valueReference":{"display":"Jesper Odd Hansen, HPR: 7479654","reference":"urn:uuid:17626036-76a6-4cd5-acee-0b5abd512190","type":"http://ehelse.no/fhir/StructureDefinition/sfm-Practitioner"}},{"url":"timestamp","valueDateTime":"2025-02-19T17:25:03.2439589+01:00"}],"url":"http://ehelse.no/fhir/StructureDefinition/sfm-regInfo"},{"extension":[{"url":"genericSubstitutionAccepted","valueBoolean":true}],"url":"http://ehelse.no/fhir/StructureDefinition/sfm-generic-substitution"},{"extension":[{"url":"timedate","valueDateTime":"2025-03-02T00:00:00+01:00"},{"url":"reason","valueCodeableConcept":{"coding":[{"code":"A","display":"Avsluttet behandling","system":"urn:oid:2.16.578.1.12.4.1.1.7494"}]}}],"url":"http://ehelse.no/fhir/StructureDefinition/sfm-discontinuation"}],"id":"1409525248","identifier":[{"type":{"text":"PLL"},"use":"usual","value":"282abd90-58fb-4829-9677-97261d01dbfd"},{"type":{"text":"ReseptId"},"use":"usual","value":"9fd64e54-2be5-4d21-9e37-222592b81591"}],"medicationReference":{"display":"Dolutegravir tab 50 mg","reference":"urn:uuid:cbb196c3-d973-4850-a3d2-13ab8c0998ba","type":"http://ehelse.no/fhir/StructureDefinition/sfm-Medication"},"meta":{"profile":["http://ehelse.no/fhir/StructureDefinition/sfm-MedicationStatement"]},"resourceType":"MedicationStatement","status":"active","subject":{"display":"Jeo 53 Test","reference":"urn:uuid:aa2377b7-b9b7-45fa-948b-4d817ecc899d","type":"http://ehelse.no/fhir/StructureDefinition/sfm-Patient"}}},{"fullUrl":"urn:uuid:fbc6f5f1-5a50-429d-9ea5-146631b6a7da","resource":{"amount":{"numerator":{"unit":"cm2","value":456}},"code":{"coding":[{"code":"10","display":"Magistrell","system":"urn:oid:2.16.578.1.12.4.1.1.7424"}]},"extension":[{"url":"http://ehelse.no/fhir/StructureDefinition/sfm-name","valueString":"PAR-SME: Test bikubegel 456 cm2"},{"url":"http://ehelse.no/fhir/StructureDefinition/sfm-recipe","valueString":"Test"}],"form":{"coding":[{"code":"469","display":"bikubegel","system":"urn:oid:2.16.578.1.12.4.1.1.7448"}]},"id":"3161498","meta":{"profile":["http://ehelse.no/fhir/StructureDefinition/sfm-Magistrell-Medication"]},"resourceType":"Medication","status":"active"}},{"fullUrl":"urn:uuid:80efecb6-518c-4a55-ab37-d68cafe3bb89","resource":{"dosage":[{"extension":[{"url":"http://ehelse.no/fhir/StructureDefinition/sfm-use","valueCodeableConcept":{"coding":[{"code":"1","display":"Fast","system":"urn:oid:2.16.578.1.12.4.1.1.9101"}]}},{"extension":[{"url":"text","valueString":"MN"}],"url":"http://ehelse.no/fhir/StructureDefinition/sfm-application-area"}],"sequence":1,"text":"1 mg daglig i 1 uke.\nDeretter 1 mg kveld daglig i 1 uke"}],"extension":[{"extension":[{"url":"reseptdate","valueDate":"2025-01-21"},{"url":"expirationdate","valueDate":"2026-01-20"},{"url":"festUpdate","valueDateTime":"2022-09-08T13:34:11+00:00"},{"url":"guardiantransparencyreservation","valueBoolean":false},{"url":"indoctorsname","valueBoolean":false},{"url":"dssn","valueString":"1 mg daglig i 1 uke.\nDeretter 1 mg kveld daglig i 1 uke"},{"url":"lockedresept","valueBoolean":false},{"url":"amount","valueQuantity":{"unit":"kvadratcentimeter","value":456}},{"url":"numberofpackages","valueDecimal":1},{"url":"reit","valueString":"0"},{"url":"itemgroup","valueCodeableConcept":{"coding":[{"code":"L","display":"Legemiddel","system":"urn:oid:2.16.578.1.12.4.1.1.7402"}]}},{"url":"reimbursementcode","valueCodeableConcept":{"coding":[{"code":"-90","display":"Palliativ behandling i livets sluttfase","system":"urn:oid:2.16.578.1.12.4.1.1.7435"}]}},{"url":"reimbursementparagraph","valueCodeableConcept":{"coding":[{"code":"200","display":"§5-14 §2","system":"urn:oid:2.16.578.1.12.4.1.1.7427"}]}},{"extension":[{"url":"starttime","valueDate":"2025-01-21"},{"url":"endtime","valueDate":"2025-01-28"},{"extension":[{"url":"amount","valueQuantity":{"unit":"mg","value":1}},{"url":"interval","valueQuantity":{"unit":"Døgn","value":1}},{"url":"accurate","valueBoolean":false},{"url":"timerange","valueCodeableConcept":{"coding":[{"code":"1","display":"Morgen","system":"urn:oid:2.16.578.1.12.4.1.1.8325"}]}}],"url":"repeatingdosage"}],"url":"ereseptdosing"},{"extension":[{"url":"starttime","valueDate":"2025-01-28"},{"url":"endtime","valueDate":"2025-02-04"},{"extension":[{"url":"amount","valueQuantity":{"unit":"mg","value":1}},{"url":"interval","valueQuantity":{"unit":"Døgn","value":1}},{"url":"accurate","valueBoolean":false},{"url":"timerange","valueCodeableConcept":{"coding":[{"code":"5","display":"Kveld","system":"urn:oid:2.16.578.1.12.4.1.1.8325"}]}}],"url":"repeatingdosage"}],"url":"ereseptdosing"},{"extension":[{"url":"status","valueCodeableConcept":{"coding":[{"code":"E","display":"Ekspederbar","system":"urn:oid:2.16.578.1.12.4.1.1.7408"}]}}],"url":"rfstatus"},{"url":"lastchanged","valueDateTime":"2025-01-29T08:50:04.4093104+01:00"},{"url":"typeresept","valueCodeableConcept":{"coding":[{"code":"E","display":"Eresept","system":"urn:oid:2.16.578.1.12.4.1.1.7491"}]}}],"url":"http://ehelse.no/fhir/StructureDefinition/sfm-reseptamendment"},{"extension":[{"url":"status","valueCodeableConcept":{"coding":[{"code":"3","display":"Godkjent","system":"http://ehelse.no/fhir/CodeSystem/sfm-medicationstatement-registration-status"}]}},{"url":"type","valueCodeableConcept":{"coding":[{"code":"1","display":"Forskrevet av","system":"http://ehelse.no/fhir/CodeSystem/sfm-performer-roles"}]}},{"url":"provider","valueReference":{"display":"Jesper Odd Hansen, HPR: 7479654","reference":"urn:uuid:17626036-76a6-4cd5-acee-0b5abd512190","type":"http://ehelse.no/fhir/StructureDefinition/sfm-Practitioner"}},{"url":"timestamp","valueDateTime":"2025-01-21T16:10:37.5855616+01:00"}],"url":"http://ehelse.no/fhir/StructureDefinition/sfm-regInfo"},{"extension":[{"url":"genericSubstitutionAccepted","valueBoolean":true}],"url":"http://ehelse.no/fhir/StructureDefinition/sfm-generic-substitution"}],"id":"949407132","identifier":[{"type":{"text":"PLL"},"use":"usual","value":"5847cfda-fea5-44ff-8bec-9174c07f5fb6"},{"type":{"text":"ReseptId"},"use":"usual","value":"94d48ebb-9a87-4096-bbbf-b9572a127999"}],"medicationReference":{"display":"PAR-SME: Test bikubegel 456 cm2","reference":"urn:uuid:fbc6f5f1-5a50-429d-9ea5-146631b6a7da","type":"http://ehelse.no/fhir/StructureDefinition/sfm-Magistrell-Medication"},"meta":{"profile":["http://ehelse.no/fhir/StructureDefinition/sfm-MedicationStatement"]},"resourceType":"MedicationStatement","status":"active","subject":{"display":"Jeo 53 Test","reference":"urn:uuid:aa2377b7-b9b7-45fa-948b-4d817ecc899d","type":"http://ehelse.no/fhir/StructureDefinition/sfm-Patient"}}},{"fullUrl":"urn:uuid:86ddebf3-9029-414f-9add-86711a2f850d","resource":{"code":{"coding":[{"code":"ID_AA43252B-9F7A-40F4-BCFA-E76B9DBC0388","display":"Trimetoprim tab 300 mg","system":"http://ehelse.no/fhir/CodeSystem/FEST"}]},"extension":[{"extension":[{"url":"prescriptiongroup","valueCodeableConcept":{"coding":[{"code":"C","display":"Reseptgruppe C","system":"urn:oid:2.16.578.1.12.4.1.1.7421"}]}}],"url":"http://hl7.no/fhir/StructureDefinition/no-basis-prescriptiongroup"},{"extension":[{"url":"registreringstype","valueCodeableConcept":{"coding":[{"code":"1","display":"Legemiddelvirkestoff","system":"http://ehelse.no/fhir/CodeSystem/sfm-festregistrationtype"}]}}],"url":"http://ehelse.no/fhir/StructureDefinition/sfm-medicationdetails"}],"form":{"coding":[{"code":"53","display":"Tablett","system":"urn:oid:2.16.578.1.12.4.1.1.7448"}]},"id":"899122416","identifier":[{"type":{"text":"identifier"},"use":"official","value":"ID_AA43252B-9F7A-40F4-BCFA-E76B9DBC0388"}],"meta":{"profile":["http://ehelse.no/fhir/StructureDefinition/sfm-Medication"]},"resourceType":"Medication","status":"active"}},{"fullUrl":"urn:uuid:09781d32-d17f-45fb-83be-af4102233c62","resource":{"dosage":[{"extension":[{"url":"http://ehelse.no/fhir/StructureDefinition/sfm-use","valueCodeableConcept":{"coding":[{"code":"2","display":"Kur","system":"urn:oid:2.16.578.1.12.4.1.1.9101"}]}},{"extension":[{"url":"text","valueString":"MOT INFEKSJON"}],"url":"http://ehelse.no/fhir/StructureDefinition/sfm-application-area"}],"sequence":1,"text":"1 tablett kveld daglig i 12 dager"}],"extension":[{"extension":[{"url":"expirationdate","valueDate":"2025-02-23"},{"url":"dssn","valueString":"1 tablett kveld daglig i 12 dager. Siste dose tas: 21.02.2025"},{"url":"amount","valueQuantity":{"unit":"stykk","value":12}},{"url":"reit","valueString":"0"},{"url":"itemgroup","valueCodeableConcept":{"coding":[{"code":"L","display":"Legemiddel","system":"urn:oid:2.16.578.1.12.4.1.1.7402"}]}},{"extension":[{"url":"starttime","valueDate":"2025-02-10"},{"url":"endtime","valueDate":"2025-02-22"},{"extension":[{"url":"amount","valueQuantity":{"unit":"tablett","value":1}},{"url":"interval","valueQuantity":{"unit":"Døgn","value":1}},{"url":"accurate","valueBoolean":false},{"url":"timerange","valueCodeableConcept":{"coding":[{"code":"5","display":"Kveld","system":"urn:oid:2.16.578.1.12.4.1.1.8325"}]}}],"url":"repeatingdosage"}],"url":"ereseptdosing"},{"url":"lastchanged","valueDateTime":"2025-02-10T12:09:52.0654201+01:00"},{"url":"typeresept","valueCodeableConcept":{"coding":[{"code":"E","display":"Eresept","system":"urn:oid:2.16.578.1.12.4.1.1.7491"}]}}],"url":"http://ehelse.no/fhir/StructureDefinition/sfm-reseptamendment"},{"url":"effectiveDateTime","valueDate":"2025-02-10"},{"extension":[{"url":"status","valueCodeableConcept":{"coding":[{"code":"3","display":"Godkjent","system":"http://ehelse.no/fhir/CodeSystem/sfm-medicationstatement-registration-status"}]}},{"url":"type","valueCodeableConcept":{"coding":[{"code":"1","display":"Forskrevet av","system":"http://ehelse.no/fhir/CodeSystem/sfm-performer-roles"}]}},{"url":"provider","valueReference":{"display":"Jesper Odd Hansen, HPR: 7479654","reference":"urn:uuid:17626036-76a6-4cd5-acee-0b5abd512190","type":"http://ehelse.no/fhir/StructureDefinition/sfm-Practitioner"}},{"url":"timestamp","valueDateTime":"2025-02-10T12:09:52.0654201+01:00"}],"url":"http://ehelse.no/fhir/StructureDefinition/sfm-regInfo"},{"extension":[{"url":"status","valueCodeableConcept":{"coding":[{"code":"3","display":"Godkjent","system":"http://ehelse.no/fhir/CodeSystem/sfm-medicationstatement-registration-status"}]}},{"url":"type","valueCodeableConcept":{"coding":[{"code":"3","display":"Seponert av","system":"http://ehelse.no/fhir/CodeSystem/sfm-performer-roles"}]}},{"url":"provider","valueReference":{"display":"Jesper Odd Hansen, HPR: 7479654","reference":"urn:uuid:17626036-76a6-4cd5-acee-0b5abd512190","type":"http://ehelse.no/fhir/StructureDefinition/sfm-Practitioner"}},{"url":"timestamp","valueDateTime":"2025-02-10T12:09:52.0654201+01:00"}],"url":"http://ehelse.no/fhir/StructureDefinition/sfm-regInfo"},{"extension":[{"url":"genericSubstitutionAccepted","valueBoolean":true}],"url":"http://ehelse.no/fhir/StructureDefinition/sfm-generic-substitution"},{"extension":[{"url":"timedate","valueDateTime":"2025-02-10T12:09:09.247+01:00"},{"url":"reason","valueCodeableConcept":{"coding":[{"code":"A","display":"Avsluttet behandling","system":"urn:oid:2.16.578.1.12.4.1.1.7494"}]}}],"url":"http://ehelse.no/fhir/StructureDefinition/sfm-discontinuation"}],"id":"757302420","identifier":[{"type":{"text":"PLL"},"use":"usual","value":"34b3ecd8-fad1-4572-ba35-7f8420132946"},{"type":{"text":"ReseptId"},"use":"usual","value":"f208db73-5d73-43e5-91ee-bf5a5deafc72"}],"medicationReference":{"display":"Trimetoprim tab 300 mg","reference":"urn:uuid:86ddebf3-9029-414f-9add-86711a2f850d","type":"http://ehelse.no/fhir/StructureDefinition/sfm-Medication"},"meta":{"profile":["http://ehelse.no/fhir/StructureDefinition/sfm-MedicationStatement"]},"resourceType":"MedicationStatement","status":"stopped","subject":{"display":"Jeo 53 Test","reference":"urn:uuid:aa2377b7-b9b7-45fa-948b-4d817ecc899d","type":"http://ehelse.no/fhir/StructureDefinition/sfm-Patient"}}},{"fullUrl":"urn:uuid:10d16a49-2f3d-4859-b796-bd0596eaf010","resource":{"code":{"coding":[{"code":"ID_044D7BEA-2CEA-4FB4-8A66-5BA7DF11C194","display":"Ibuprofen mikst susp 40 mg/ml","system":"http://ehelse.no/fhir/CodeSystem/FEST"}]},"extension":[{"extension":[{"url":"prescriptiongroup","valueCodeableConcept":{"coding":[{"code":"C","display":"Reseptgruppe C","system":"urn:oid:2.16.578.1.12.4.1.1.7421"}]}}],"url":"http://hl7.no/fhir/StructureDefinition/no-basis-prescriptiongroup"},{"extension":[{"url":"registreringstype","valueCodeableConcept":{"coding":[{"code":"1","display":"Legemiddelvirkestoff","system":"http://ehelse.no/fhir/CodeSystem/sfm-festregistrationtype"}]}}],"url":"http://ehelse.no/fhir/StructureDefinition/sfm-medicationdetails"}],"form":{"coding":[{"code":"840","display":"Mikstur, suspensjon","system":"urn:oid:2.16.578.1.12.4.1.1.7448"}]},"id":"1790803192","identifier":[{"type":{"text":"identifier"},"use":"official","value":"ID_044D7BEA-2CEA-4FB4-8A66-5BA7DF11C194"}],"meta":{"profile":["http://ehelse.no/fhir/StructureDefinition/sfm-Medication"]},"resourceType":"Medication","status":"active"}},{"fullUrl":"urn:uuid:c1714d7d-9393-456a-8a36-bd42c032dc41","resource":{"dosage":[{"extension":[{"url":"http://ehelse.no/fhir/StructureDefinition/sfm-use","valueCodeableConcept":{"coding":[{"code":"1","display":"Fast","system":"urn:oid:2.16.578.1.12.4.1.1.9101"}]}},{"extension":[{"url":"text","valueString":"MOT SMERTER"}],"url":"http://ehelse.no/fhir/StructureDefinition/sfm-application-area"}],"sequence":1,"text":"avt"}],"extension":[{"extension":[{"url":"expirationdate","valueDate":"2026-01-14"},{"url":"dssn","valueString":"avt"},{"url":"amount","valueQuantity":{"unit":"milliliter","value":29}},{"url":"reit","valueString":"0"},{"url":"itemgroup","valueCodeableConcept":{"coding":[{"code":"L","display":"Legemiddel","system":"urn:oid:2.16.578.1.12.4.1.1.7402"}]}},{"url":"lastchanged","valueDateTime":"2025-01-14T15:14:20+01:00"},{"url":"typeresept","valueCodeableConcept":{"coding":[{"code":"E","display":"Eresept","system":"urn:oid:2.16.578.1.12.4.1.1.7491"}]}}],"url":"http://ehelse.no/fhir/StructureDefinition/sfm-reseptamendment"},{"extension":[{"url":"status","valueCodeableConcept":{"coding":[{"code":"3","display":"Godkjent","system":"http://ehelse.no/fhir/CodeSystem/sfm-medicationstatement-registration-status"}]}},{"url":"type","valueCodeableConcept":{"coding":[{"code":"1","display":"Forskrevet av","system":"http://ehelse.no/fhir/CodeSystem/sfm-performer-roles"}]}},{"url":"provider","valueReference":{"display":"Jesper Odd Hansen, HPR: 7479654","reference":"urn:uuid:17626036-76a6-4cd5-acee-0b5abd512190","type":"http://ehelse.no/fhir/StructureDefinition/sfm-Practitioner"}},{"url":"timestamp","valueDateTime":"2025-01-14T15:14:20+01:00"}],"url":"http://ehelse.no/fhir/StructureDefinition/sfm-regInfo"},{"extension":[{"url":"genericSubstitutionAccepted","valueBoolean":true}],"url":"http://ehelse.no/fhir/StructureDefinition/sfm-generic-substitution"}],"id":"1831445820","identifier":[{"type":{"text":"PLL"},"use":"usual","value":"3404cf09-0e8b-43b6-80ae-3cc1781256d6"},{"type":{"text":"ReseptId"},"use":"usual","value":"23c0961e-b3bb-428a-99c7-53f08e836f8e"}],"medicationReference":{"display":"Ibuprofen mikst susp 40 mg/ml","reference":"urn:uuid:10d16a49-2f3d-4859-b796-bd0596eaf010","type":"http://ehelse.no/fhir/StructureDefinition/sfm-Medication"},"meta":{"profile":["http://ehelse.no/fhir/StructureDefinition/sfm-MedicationStatement"]},"resourceType":"MedicationStatement","status":"active","subject":{"display":"Jeo 53 Test","reference":"urn:uuid:aa2377b7-b9b7-45fa-948b-4d817ecc899d","type":"http://ehelse.no/fhir/StructureDefinition/sfm-Patient"}}},{"fullUrl":"urn:uuid:e77a4084-a180-4a5a-a17f-e8cd56b9003e","resource":{"code":{"coding":[{"code":"ID_C4517209-B3C4-45FB-8406-2F0D5E6F991C","display":"Sulfametoksazol/Trimetoprim tab 400 mg/80 mg","system":"http://ehelse.no/fhir/CodeSystem/FEST"}]},"extension":[{"extension":[{"url":"prescriptiongroup","valueCodeableConcept":{"coding":[{"code":"C","display":"Reseptgruppe C","system":"urn:oid:2.16.578.1.12.4.1.1.7421"}]}}],"url":"http://hl7.no/fhir/StructureDefinition/no-basis-prescriptiongroup"},{"extension":[{"url":"registreringstype","valueCodeableConcept":{"coding":[{"code":"1","display":"Legemiddelvirkestoff","system":"http://ehelse.no/fhir/CodeSystem/sfm-festregistrationtype"}]}}],"url":"http://ehelse.no/fhir/StructureDefinition/sfm-medicationdetails"}],"form":{"coding":[{"code":"53","display":"Tablett","system":"urn:oid:2.16.578.1.12.4.1.1.7448"}]},"id":"1865215629","identifier":[{"type":{"text":"identifier"},"use":"official","value":"ID_C4517209-B3C4-45FB-8406-2F0D5E6F991C"}],"meta":{"profile":["http://ehelse.no/fhir/StructureDefinition/sfm-Medication"]},"resourceType":"Medication","status":"active"}},{"fullUrl":"urn:uuid:0261f8a3-e2c0-49ee-a900-b458cecaf527","resource":{"dosage":[{"extension":[{"url":"http://ehelse.no/fhir/StructureDefinition/sfm-shortdosage","valueCodeableConcept":{"coding":[{"code":"5703","display":"2+0+0+2x14","system":"urn:oid:2.16.578.1.12.4.1.1.7478"}]}},{"url":"http://ehelse.no/fhir/StructureDefinition/sfm-use","valueCodeableConcept":{"coding":[{"code":"2","display":"Kur","system":"urn:oid:2.16.578.1.12.4.1.1.9101"}]}},{"extension":[{"url":"text","valueString":"MOT URINVEISINFEKSJON"}],"url":"http://ehelse.no/fhir/StructureDefinition/sfm-application-area"}],"sequence":1,"text":"2 tabletter morgen 2 tabletter kveld i 14 dager"}],"extension":[{"extension":[{"url":"expirationdate","valueDate":"2025-01-24"},{"url":"dssn","valueString":"2 tabletter morgen 2 tabletter kveld i 14 dager"},{"url":"amount","valueQuantity":{"unit":"stykk","value":20}},{"url":"reit","valueString":"0"},{"url":"itemgroup","valueCodeableConcept":{"coding":[{"code":"L","display":"Legemiddel","system":"urn:oid:2.16.578.1.12.4.1.1.7402"}]}},{"extension":[{"url":"starttime","valueDate":"2025-01-30"},{"url":"endtime","valueDate":"2025-02-13"},{"extension":[{"url":"amount","valueQuantity":{"unit":"tablett","value":2}},{"url":"interval","valueQuantity":{"unit":"Døgn","value":1}},{"url":"accurate","valueBoolean":false},{"url":"timerange","valueCodeableConcept":{"coding":[{"code":"1","display":"Morgen","system":"urn:oid:2.16.578.1.12.4.1.1.8325"}]}}],"url":"repeatingdosage"},{"extension":[{"url":"amount","valueQuantity":{"unit":"tablett","value":2}},{"url":"interval","valueQuantity":{"unit":"Døgn","value":1}},{"url":"accurate","valueBoolean":false},{"url":"timerange","valueCodeableConcept":{"coding":[{"code":"5","display":"Kveld","system":"urn:oid:2.16.578.1.12.4.1.1.8325"}]}}],"url":"repeatingdosage"}],"url":"ereseptdosing"},{"url":"lastchanged","valueDateTime":"2025-01-30T09:09:20.1462668+01:00"},{"url":"typeresept","valueCodeableConcept":{"coding":[{"code":"E","display":"Eresept","system":"urn:oid:2.16.578.1.12.4.1.1.7491"}]}}],"url":"http://ehelse.no/fhir/StructureDefinition/sfm-reseptamendment"},{"extension":[{"url":"status","valueCodeableConcept":{"coding":[{"code":"3","display":"Godkjent","system":"http://ehelse.no/fhir/CodeSystem/sfm-medicationstatement-registration-status"}]}},{"url":"type","valueCodeableConcept":{"coding":[{"code":"1","display":"Forskrevet av","system":"http://ehelse.no/fhir/CodeSystem/sfm-performer-roles"}]}},{"url":"provider","valueReference":{"display":"Jesper Odd Hansen, HPR: 7479654","reference":"urn:uuid:17626036-76a6-4cd5-acee-0b5abd512190","type":"http://ehelse.no/fhir/StructureDefinition/sfm-Practitioner"}},{"url":"timestamp","valueDateTime":"2025-01-30T09:09:20.1462668+01:00"}],"url":"http://ehelse.no/fhir/StructureDefinition/sfm-regInfo"},{"extension":[{"url":"genericSubstitutionAccepted","valueBoolean":true}],"url":"http://ehelse.no/fhir/StructureDefinition/sfm-generic-substitution"}],"id":"1135628434","identifier":[{"type":{"text":"PLL"},"use":"usual","value":"3e050b9b-ed9f-4556-932d-2ef38673997c"},{"type":{"text":"ReseptId"},"use":"usual","value":"f07bd4c9-1860-4828-bb06-783fd2fa4f68"}],"medicationReference":{"display":"Sulfametoksazol/Trimetoprim tab 400 mg/80 mg","reference":"urn:uuid:e77a4084-a180-4a5a-a17f-e8cd56b9003e","type":"http://ehelse.no/fhir/StructureDefinition/sfm-Medication"},"meta":{"profile":["http://ehelse.no/fhir/StructureDefinition/sfm-MedicationStatement"]},"resourceType":"MedicationStatement","status":"active","subject":{"display":"Jeo 53 Test","reference":"urn:uuid:aa2377b7-b9b7-45fa-948b-4d817ecc899d","type":"http://ehelse.no/fhir/StructureDefinition/sfm-Patient"}}},{"fullUrl":"urn:uuid:abb11581-48c6-4bca-b6a1-b5833735f745","resource":{"amount":{"extension":[{"extension":[{"url":"quantity","valueQuantity":{"unit":"stk","value":100}},{"url":"amounttext","valueString":"100 stk"}],"url":"http://ehelse.no/fhir/StructureDefinition/sfm-amountText"}]},"code":{"coding":[{"code":"335398","display":"Koffein NAF tab 100 mg","system":"http://ehelse.no/fhir/CodeSystem/FEST"},{"code":"N06BC01","display":"Koffein","system":"http://www.whocc.no/atc"}]},"extension":[{"extension":[{"url":"prescriptiongroup","valueCodeableConcept":{"coding":[{"code":"C","display":"Reseptgruppe C","system":"urn:oid:2.16.578.1.12.4.1.1.7421"}]}}],"url":"http://hl7.no/fhir/StructureDefinition/no-basis-prescriptiongroup"},{"extension":[{"url":"registreringstype","valueCodeableConcept":{"coding":[{"code":"3","display":"Legemiddelpakning","system":"http://ehelse.no/fhir/CodeSystem/sfm-festregistrationtype"}]}},{"extension":[{"url":"name","valueString":"Koffein NAF"},{"url":"packingsize","valueString":"100"},{"url":"packingunit","valueCodeableConcept":{"coding":[{"code":"stk","display":"stykk","system":"urn:oid:2.16.578.1.12.4.1.1.7452"}]}}],"url":"packinginfoprescription"}],"url":"http://ehelse.no/fhir/StructureDefinition/sfm-medicationdetails"}],"form":{"coding":[{"code":"53","display":"Tablett","system":"urn:oid:2.16.578.1.12.4.1.1.7448"}]},"id":"933242861","identifier":[{"type":{"text":"identifier"},"use":"official","value":"335398"}],"meta":{"profile":["http://ehelse.no/fhir/StructureDefinition/sfm-Medication"]},"resourceType":"Medication","status":"active"}},{"fullUrl":"urn:uuid:67c02ae8-c088-42a9-aaee-7fea6ccd4568","resource":{"dosage":[{"extension":[{"url":"http://ehelse.no/fhir/StructureDefinition/sfm-use","valueCodeableConcept":{"coding":[{"code":"1","display":"Fast","system":"urn:oid:2.16.578.1.12.4.1.1.9101"}]}},{"extension":[{"url":"text","valueString":"MOT DET MESTE"}],"url":"http://ehelse.no/fhir/StructureDefinition/sfm-application-area"}],"sequence":1,"text":"Alt for mye kaffe, alt for mye, alt alt for mye"}],"extension":[{"extension":[{"url":"reseptdate","valueDate":"2025-02-13"},{"url":"expirationdate","valueDate":"2026-02-08"},{"url":"dssn","valueString":"Alt for mye kaffe, alt for mye, alt alt for mye"},{"url":"numberofpackages","valueDecimal":1},{"url":"reit","valueString":"0"},{"url":"itemgroup","valueCodeableConcept":{"coding":[{"code":"L","display":"Legemiddel","system":"urn:oid:2.16.578.1.12.4.1.1.7402"}]}},{"url":"lastchanged","valueDateTime":"2025-02-13T11:22:32.9332373+01:00"},{"url":"typeresept","valueCodeableConcept":{"coding":[{"code":"U","display":"Uten resept","system":"urn:oid:2.16.578.1.12.4.1.1.7491"}]}}],"url":"http://ehelse.no/fhir/StructureDefinition/sfm-reseptamendment"},{"extension":[{"url":"status","valueCodeableConcept":{"coding":[{"code":"3","display":"Godkjent","system":"http://ehelse.no/fhir/CodeSystem/sfm-medicationstatement-registration-status"}]}},{"url":"type","valueCodeableConcept":{"coding":[{"code":"1","display":"Forskrevet av","system":"http://ehelse.no/fhir/CodeSystem/sfm-performer-roles"}]}},{"url":"provider","valueReference":{"display":"Jesper Odd Hansen, HPR: 7479654","reference":"urn:uuid:17626036-76a6-4cd5-acee-0b5abd512190","type":"http://ehelse.no/fhir/StructureDefinition/sfm-Practitioner"}},{"url":"timestamp","valueDateTime":"2025-02-13T11:22:32.9332373+01:00"}],"url":"http://ehelse.no/fhir/StructureDefinition/sfm-regInfo"},{"extension":[{"url":"genericSubstitutionAccepted","valueBoolean":true}],"url":"http://ehelse.no/fhir/StructureDefinition/sfm-generic-substitution"}],"id":"1473108493","identifier":[{"type":{"text":"PLL"},"use":"usual","value":"3ac6a4b5-d34d-48da-ab03-04848b679ff2"}],"medicationReference":{"display":"Koffein NAF tab 100 mg","reference":"urn:uuid:abb11581-48c6-4bca-b6a1-b5833735f745","type":"http://ehelse.no/fhir/StructureDefinition/sfm-Medication"},"meta":{"profile":["http://ehelse.no/fhir/StructureDefinition/sfm-MedicationStatement"]},"resourceType":"MedicationStatement","status":"active","subject":{"display":"Jeo 53 Test","reference":"urn:uuid:aa2377b7-b9b7-45fa-948b-4d817ecc899d","type":"http://ehelse.no/fhir/StructureDefinition/sfm-Patient"}}},{"fullUrl":"urn:uuid:a77bdb2a-2261-488d-b65d-d461ca9617af","resource":{"code":[{"coding":[{"code":"R","display":"Rekvirent","system":"urn:oid:2.16.578.1.12.4.1.1.7490"}]}],"id":"288421177","meta":{"profile":["http://ehelse.no/fhir/StructureDefinition/sfm-PractitionerRole"]},"practitioner":{"display":"Jesper Odd Hansen, HPR: 7479654","identifier":{"system":"urn:oid:2.16.578.1.12.4.1.4.4","type":{"coding":[{"code":"HPR-nummer","system":"http://hl7.no/fhir/NamingSystem/HPR"}]},"use":"usual","value":"7479654"},"reference":"urn:uuid:17626036-76a6-4cd5-acee-0b5abd512190","type":"http://ehelse.no/fhir/StructureDefinition/sfm-Practitioner"},"resourceType":"PractitionerRole"}},{"fullUrl":"urn:uuid:f67e7eac-fd66-42d2-9817-4089bd2de800","resource":{"author":{"display":"Jesper Odd Hansen, HPR: 7479654, R:Rekvirent","reference":"urn:uuid:a77bdb2a-2261-488d-b65d-d461ca9617af","type":"http://ehelse.no/fhir/StructureDefinition/sfm-PractitionerRole"},"code":{"coding":[{"code":"A","display":"Annet","system":"urn:oid:2.16.578.1.12.4.1.1.7402"}]},"extension":[{"extension":[{"url":"productgroup","valueCodeableConcept":{"coding":[{"code":"505","display":"Forbruksmateriell ved stomi","system":"urn:oid:2.16.578.1.12.4.1.1.7403"}]}}],"url":"http://ehelse.no/fhir/StructureDefinition/sfm-reseptdocbanda"},{"extension":[{"url":"reseptdate","valueDate":"2025-02-11"},{"url":"expirationdate","valueDate":"2026-02-10"},{"url":"festUpdate","valueDateTime":"2022-09-08T13:34:11+00:00"},{"url":"guardiantransparencyreservation","valueBoolean":false},{"url":"indoctorsname","valueBoolean":false},{"url":"dssn","valueString":"test"},{"url":"lockedresept","valueBoolean":false},{"url":"itemgroup","valueCodeableConcept":{"coding":[{"code":"A","display":"Annet","system":"urn:oid:2.16.578.1.12.4.1.1.7402"}]}},{"url":"reimbursementparagraph","valueCodeableConcept":{"coding":[{"code":"505","display":"§5-14 §5.5","system":"urn:oid:2.16.578.1.12.4.1.1.7427"}]}},{"extension":[{"url":"recallId","valueString":"f7230d91-16df-4320-83b4-ec2643664e8f"},{"url":"text","valueString":"Årsak: Fornying med endring\r\nMerknad: Forny med endring"},{"url":"recallcode","valueCodeableConcept":{"coding":[{"code":"3","display":"Fornying med endring","system":"urn:oid:2.16.578.1.12.4.1.1.7500"}]}},{"url":"performed","valueDateTime":"2025-02-12T07:03:46.866+01:00"}],"url":"recallinfo"},{"extension":[{"url":"status","valueCodeableConcept":{"coding":[{"code":"T","display":"Tilbakekalt","system":"urn:oid:2.16.578.1.12.4.1.1.7408"}]}}],"url":"rfstatus"},{"url":"typeresept","valueCodeableConcept":{"coding":[{"code":"E","display":"Eresept","system":"urn:oid:2.16.578.1.12.4.1.1.7491"}]}}],"url":"http://ehelse.no/fhir/StructureDefinition/sfm-reseptamendment"}],"id":"4605f5d4-bfb1-43a7-a039-5a2ee36df44e","identifier":[{"type":{"text":"reseptId"},"use":"official","value":"2dc8664f-b7ad-422e-b002-c7d43bff9b3e"}],"meta":{"profile":["http://ehelse.no/fhir/StructureDefinition/sfm-BandaPrescription"]},"resourceType":"Basic","subject":{"display":"Jeo 53 Test","reference":"urn:uuid:aa2377b7-b9b7-45fa-948b-4d817ecc899d","type":"http://ehelse.no/fhir/StructureDefinition/sfm-Patient"}}},{"fullUrl":"urn:uuid:7409466d-7c88-4e5d-9561-faeff93d98fb","resource":{"author":{"display":"Jesper Odd Hansen, HPR: 7479654, R:Rekvirent","reference":"urn:uuid:a77bdb2a-2261-488d-b65d-d461ca9617af","type":"http://ehelse.no/fhir/StructureDefinition/sfm-PractitionerRole"},"code":{"coding":[{"code":"A","display":"Annet","system":"urn:oid:2.16.578.1.12.4.1.1.7402"}]},"extension":[{"extension":[{"url":"productgroup","valueCodeableConcept":{"coding":[{"code":"601","display":"Næringsmidler ved diverse tilstander","system":"urn:oid:2.16.578.1.12.4.1.1.7403"}]}}],"url":"http://ehelse.no/fhir/StructureDefinition/sfm-reseptdocbanda"},{"extension":[{"url":"reseptdate","valueDate":"2025-02-07"},{"url":"expirationdate","valueDate":"2026-02-07"},{"url":"festUpdate","valueDateTime":"2022-09-08T13:34:11+00:00"},{"url":"guardiantransparencyreservation","valueBoolean":false},{"url":"indoctorsname","valueBoolean":false},{"url":"dssn","valueString":"testm"},{"url":"lockedresept","valueBoolean":false},{"url":"itemgroup","valueCodeableConcept":{"coding":[{"code":"A","display":"Annet","system":"urn:oid:2.16.578.1.12.4.1.1.7402"}]}},{"url":"reimbursementparagraph","valueCodeableConcept":{"coding":[{"code":"601","display":"§5-14 §6.1","system":"urn:oid:2.16.578.1.12.4.1.1.7427"}]}},{"extension":[{"url":"status","valueCodeableConcept":{"coding":[{"code":"E","display":"Ekspederbar","system":"urn:oid:2.16.578.1.12.4.1.1.7408"}]}}],"url":"rfstatus"},{"url":"typeresept","valueCodeableConcept":{"coding":[{"code":"E","display":"Eresept","system":"urn:oid:2.16.578.1.12.4.1.1.7491"}]}}],"url":"http://ehelse.no/fhir/StructureDefinition/sfm-reseptamendment"}],"id":"cac7dd0c-1aa2-40c2-b18c-6a5ccf26584f","identifier":[{"type":{"text":"reseptId"},"use":"official","value":"b8c8307b-3d6d-40e4-947a-da75ca429a77"}],"meta":{"profile":["http://ehelse.no/fhir/StructureDefinition/sfm-BandaPrescription"]},"resourceType":"Basic","subject":{"display":"Jeo 53 Test","reference":"urn:uuid:aa2377b7-b9b7-45fa-948b-4d817ecc899d","type":"http://ehelse.no/fhir/StructureDefinition/sfm-Patient"}}},{"fullUrl":"urn:uuid:9855704e-b5d7-4923-9f6a-d05c995be2e4","resource":{"author":{"display":"Jesper Odd Hansen, HPR: 7479654, R:Rekvirent","reference":"urn:uuid:a77bdb2a-2261-488d-b65d-d461ca9617af","type":"http://ehelse.no/fhir/StructureDefinition/sfm-PractitionerRole"},"code":{"coding":[{"code":"A","display":"Annet","system":"urn:oid:2.16.578.1.12.4.1.1.7402"}]},"extension":[{"extension":[{"url":"productgroup","valueCodeableConcept":{"coding":[{"code":"601","display":"Næringsmidler ved diverse tilstander","system":"urn:oid:2.16.578.1.12.4.1.1.7403"}]}}],"url":"http://ehelse.no/fhir/StructureDefinition/sfm-reseptdocbanda"},{"extension":[{"url":"reseptdate","valueDate":"2025-02-07"},{"url":"expirationdate","valueDate":"2026-02-07"},{"url":"festUpdate","valueDateTime":"2022-09-08T13:34:11+00:00"},{"url":"guardiantransparencyreservation","valueBoolean":false},{"url":"indoctorsname","valueBoolean":false},{"url":"dssn","valueString":"test"},{"url":"lockedresept","valueBoolean":false},{"url":"itemgroup","valueCodeableConcept":{"coding":[{"code":"A","display":"Annet","system":"urn:oid:2.16.578.1.12.4.1.1.7402"}]}},{"url":"reimbursementparagraph","valueCodeableConcept":{"coding":[{"code":"601","display":"§5-14 §6.1","system":"urn:oid:2.16.578.1.12.4.1.1.7427"}]}},{"extension":[{"url":"text","valueString":"Årsak: Seponering\r\nMerknad: Tilbakekalt"},{"url":"recallcode","valueCodeableConcept":{"coding":[{"code":"2","display":"Seponering","system":"urn:oid:2.16.578.1.12.4.1.1.7500"}]}},{"url":"performed","valueDateTime":"2025-02-12T15:32:55.091+01:00"}],"url":"recallinfo"},{"extension":[{"url":"status","valueCodeableConcept":{"coding":[{"code":"T","display":"Tilbakekalt","system":"urn:oid:2.16.578.1.12.4.1.1.7408"}]}}],"url":"rfstatus"},{"url":"typeresept","valueCodeableConcept":{"coding":[{"code":"E","display":"Eresept","system":"urn:oid:2.16.578.1.12.4.1.1.7491"}]}}],"url":"http://ehelse.no/fhir/StructureDefinition/sfm-reseptamendment"}],"id":"b257d07b-2707-4897-a99f-a333f6fe34e3","identifier":[{"type":{"text":"reseptId"},"use":"official","value":"1d8ecf32-d432-4124-a093-5b46398fd7f4"}],"meta":{"profile":["http://ehelse.no/fhir/StructureDefinition/sfm-BandaPrescription"]},"resourceType":"Basic","subject":{"display":"Jeo 53 Test","reference":"urn:uuid:aa2377b7-b9b7-45fa-948b-4d817ecc899d","type":"http://ehelse.no/fhir/StructureDefinition/sfm-Patient"}}},{"fullUrl":"urn:uuid:c6487e12-9fcc-4d70-ad53-396a6b27e1c1","resource":{"author":{"display":"Jesper Odd Hansen, HPR: 7479654, R:Rekvirent","reference":"urn:uuid:a77bdb2a-2261-488d-b65d-d461ca9617af","type":"http://ehelse.no/fhir/StructureDefinition/sfm-PractitionerRole"},"code":{"coding":[{"code":"A","display":"Annet","system":"urn:oid:2.16.578.1.12.4.1.1.7402"}]},"extension":[{"extension":[{"url":"productgroup","valueCodeableConcept":{"coding":[{"code":"604","display":"Næringsmidler ved kreft/immunsvikt/sykdom som krever næringstilskudd","system":"urn:oid:2.16.578.1.12.4.1.1.7403"}]}}],"url":"http://ehelse.no/fhir/StructureDefinition/sfm-reseptdocbanda"},{"extension":[{"url":"reseptdate","valueDate":"2025-02-10"},{"url":"expirationdate","valueDate":"2026-02-10"},{"url":"festUpdate","valueDateTime":"2022-09-08T13:34:11+00:00"},{"url":"guardiantransparencyreservation","valueBoolean":false},{"url":"indoctorsname","valueBoolean":false},{"url":"dssn","valueString":"testg"},{"url":"lockedresept","valueBoolean":false},{"url":"itemgroup","valueCodeableConcept":{"coding":[{"code":"A","display":"Annet","system":"urn:oid:2.16.578.1.12.4.1.1.7402"}]}},{"url":"reimbursementparagraph","valueCodeableConcept":{"coding":[{"code":"604","display":"§5-14 §6.4","system":"urn:oid:2.16.578.1.12.4.1.1.7427"}]}},{"extension":[{"url":"status","valueCodeableConcept":{"coding":[{"code":"E","display":"Ekspederbar","system":"urn:oid:2.16.578.1.12.4.1.1.7408"}]}}],"url":"rfstatus"},{"url":"typeresept","valueCodeableConcept":{"coding":[{"code":"E","display":"Eresept","system":"urn:oid:2.16.578.1.12.4.1.1.7491"}]}}],"url":"http://ehelse.no/fhir/StructureDefinition/sfm-reseptamendment"}],"id":"baaec226-e90d-4e2c-a37d-3138c1c052e2","identifier":[{"type":{"text":"reseptId"},"use":"official","value":"5fd4c213-119f-49b8-a0cc-115ff8051c96"}],"meta":{"profile":["http://ehelse.no/fhir/StructureDefinition/sfm-BandaPrescription"]},"resourceType":"Basic","subject":{"display":"Jeo 53 Test","reference":"urn:uuid:aa2377b7-b9b7-45fa-948b-4d817ecc899d","type":"http://ehelse.no/fhir/StructureDefinition/sfm-Patient"}}},{"fullUrl":"urn:uuid:50491920-df95-4116-a3d1-13db7a222ffd","resource":{"author":{"display":"Jesper Odd Hansen, HPR: 7479654, R:Rekvirent","reference":"urn:uuid:a77bdb2a-2261-488d-b65d-d461ca9617af","type":"http://ehelse.no/fhir/StructureDefinition/sfm-PractitionerRole"},"code":{"coding":[{"code":"A","display":"Annet","system":"urn:oid:2.16.578.1.12.4.1.1.7402"}]},"extension":[{"extension":[{"url":"productgroup","valueCodeableConcept":{"coding":[{"code":"503","display":"Forbruksmateriell til laryngektomerte","system":"urn:oid:2.16.578.1.12.4.1.1.7403"}]}}],"url":"http://ehelse.no/fhir/StructureDefinition/sfm-reseptdocbanda"},{"extension":[{"url":"reseptdate","valueDate":"2025-02-12"},{"url":"expirationdate","valueDate":"2026-02-12"},{"url":"festUpdate","valueDateTime":"2022-09-08T13:34:11+00:00"},{"url":"guardiantransparencyreservation","valueBoolean":false},{"url":"indoctorsname","valueBoolean":false},{"url":"dssn","valueString":"testv2"},{"url":"lockedresept","valueBoolean":false},{"url":"itemgroup","valueCodeableConcept":{"coding":[{"code":"A","display":"Annet","system":"urn:oid:2.16.578.1.12.4.1.1.7402"}]}},{"url":"reimbursementparagraph","valueCodeableConcept":{"coding":[{"code":"503","display":"§5-14 §5.3","system":"urn:oid:2.16.578.1.12.4.1.1.7427"}]}},{"extension":[{"url":"status","valueCodeableConcept":{"coding":[{"code":"E","display":"Ekspederbar","system":"urn:oid:2.16.578.1.12.4.1.1.7408"}]}}],"url":"rfstatus"},{"url":"typeresept","valueCodeableConcept":{"coding":[{"code":"E","display":"Eresept","system":"urn:oid:2.16.578.1.12.4.1.1.7491"}]}}],"url":"http://ehelse.no/fhir/StructureDefinition/sfm-reseptamendment"}],"id":"4045bca1-3bd0-4f9a-8de6-ad9d9bd849c3","identifier":[{"type":{"text":"reseptId"},"use":"official","value":"45a3a310-b21d-4caf-ad4b-447a66a8d91d"}],"meta":{"profile":["http://ehelse.no/fhir/StructureDefinition/sfm-BandaPrescription"]},"resourceType":"Basic","subject":{"display":"Jeo 53 Test","reference":"urn:uuid:aa2377b7-b9b7-45fa-948b-4d817ecc899d","type":"http://ehelse.no/fhir/StructureDefinition/sfm-Patient"}}},{"fullUrl":"urn:uuid:0b07b54e-5057-4ac9-bb63-0f2ff7d380a4","resource":{"id":"772767233","identifier":[{"system":"urn:oid:2.16.578.1.12.4.1.2","use":"official","value":"79744"}],"meta":{"profile":["http://ehelse.no/fhir/StructureDefinition/sfm-Organization"]},"name":"DIPS SFM Testsykehus","resourceType":"Organization"}},{"fullUrl":"urn:uuid:985452bc-8f6a-40fc-a355-1c5d29480fd8","resource":{"code":[{"coding":[{"system":"urn:oid:2.16.578.1.12.4.1.1.7490"}],"text":"PLL author"}],"id":"616854044","meta":{"profile":["http://ehelse.no/fhir/StructureDefinition/sfm-PractitionerRole"]},"organization":{"display":"DIPS SFM Testsykehus, HER: 79744","identifier":{"system":"urn:oid:2.16.578.1.12.4.1.2","use":"official","value":"79744"},"reference":"urn:uuid:0b07b54e-5057-4ac9-bb63-0f2ff7d380a4","type":"http://ehelse.no/fhir/StructureDefinition/sfm-Organization"},"practitioner":{"display":"Jesper Odd Hansen, HPR: 7479654","identifier":{"system":"urn:oid:2.16.578.1.12.4.1.4.4","type":{"coding":[{"code":"HPR-nummer","system":"http://hl7.no/fhir/NamingSystem/HPR"}]},"use":"usual","value":"7479654"},"reference":"urn:uuid:17626036-76a6-4cd5-acee-0b5abd512190","type":"http://ehelse.no/fhir/StructureDefinition/sfm-Practitioner"},"resourceType":"PractitionerRole"}},{"fullUrl":"urn:uuid:59bf889b-0363-4603-b8f3-50bb85298185","resource":{"author":{"display":"Jesper Odd Hansen, HPR: 7479654, DIPS SFM Testsykehus, HER: 79744","reference":"urn:uuid:985452bc-8f6a-40fc-a355-1c5d29480fd8","type":"http://ehelse.no/fhir/StructureDefinition/sfm-PractitionerRole"},"code":{"coding":[{"code":"M25.1","display":"PLL","system":"http://ehelse.no/fhir/CodeSystem/sfm-message-type"}]},"extension":[{"extension":[{"url":"substitute","valueBoolean":false},{"url":"PLLdate","valueDateTime":"2025-02-21T16:50:48.3420417+01:00"}],"url":"http://ehelse.no/fhir/StructureDefinition/sfm-pllInformation"}],"id":"c48148bb-0222-48f3-ae1c-b8b3f54f94ba","identifier":[{"use":"usual","value":"9fec185e-99be-4044-813b-26c35bc6b2a0"}],"meta":{"profile":["http://ehelse.no/fhir/StructureDefinition/sfm-PLL-info"]},"resourceType":"Basic","subject":{"display":"Jeo 53 Test","reference":"urn:uuid:aa2377b7-b9b7-45fa-948b-4d817ecc899d","type":"http://ehelse.no/fhir/StructureDefinition/sfm-Patient"}}},{"fullUrl":"urn:uuid:6e9e66dc-2a62-4d36-9232-9bee16455b04","resource":{"code":[{"coding":[{"code":"LE","system":"http://nhn.no/kj/fhir/CodeSystem/CategoriesOfHealthProfessionals"}],"text":"Lege"}],"id":"1403102807","meta":{"profile":["http://nhn.no/kj/fhir/StructureDefinition/KjPractitionerRole"]},"organization":{"display":"DIPS SFM Testsykehus, HER: 79744","identifier":{"system":"urn:oid:2.16.578.1.12.4.1.2","use":"official","value":"79744"},"reference":"urn:uuid:0b07b54e-5057-4ac9-bb63-0f2ff7d380a4","type":"http://ehelse.no/fhir/StructureDefinition/sfm-Organization"},"practitioner":{"display":"Jesper Odd Hansen, HPR: 7479654","identifier":{"system":"urn:oid:2.16.578.1.12.4.1.4.4","type":{"coding":[{"code":"HPR-nummer","system":"http://hl7.no/fhir/NamingSystem/HPR"}]},"use":"usual","value":"7479654"},"reference":"urn:uuid:17626036-76a6-4cd5-acee-0b5abd512190","type":"http://ehelse.no/fhir/StructureDefinition/sfm-Practitioner"},"resourceType":"PractitionerRole"}},{"fullUrl":"urn:uuid:145b2c59-de28-489a-aabd-ae1ac1d24fea","resource":{"category":["medication"],"clinicalStatus":{"coding":[{"code":"active","display":"Active","system":"http://terminology.hl7.org/CodeSystem/allergyintolerance-clinical"}]},"code":{"coding":[{"code":"J01CE02","display":"Fenoksymetylpenicillin","system":"http://nhn.no/kj/fhir/CodeSystem/ATC"}]},"criticality":"high","extension":[{"url":"http://nhn.no/kj/fhir/StructureDefinition/KjUpdatedDateTime","valueDateTime":"2025-01-23T13:25:26+01:00"},{"url":"http://nhn.no/kj/fhir/StructureDefinition/KjSourceOfInformation","valueCoding":{"code":"2","display":"Observert av behandlende lege","system":"http://nhn.no/kj/fhir/CodeSystem/SourceOfInformation"}}],"id":"13004af7-730e-48fb-bdb5-3a899d198457","identifier":[{"use":"official","value":"13004af7-730e-48fb-bdb5-3a899d198457"}],"meta":{"profile":["http://nhn.no/kj/fhir/StructureDefinition/KjAllergyIntolerance"]},"patient":{"display":"Jeo 53 Test","reference":"urn:uuid:aa2377b7-b9b7-45fa-948b-4d817ecc899d","type":"http://ehelse.no/fhir/StructureDefinition/sfm-Patient"},"reaction":[{"manifestation":[{"coding":[{"code":"2","display":"Blodtrykksfall","system":"http://nhn.no/kj/fhir/CodeSystem/TypeOfReaction"}]}]}],"recordedDate":"2025-01-23T13:25:26+01:00","recorder":{"display":"Jesper Odd Hansen, HPR: 7479654, DIPS SFM Testsykehus, HER: 79744, LE:","reference":"urn:uuid:6e9e66dc-2a62-4d36-9232-9bee16455b04","type":"http://nhn.no/kj/fhir/StructureDefinition/KjPractitionerRole"},"resourceType":"AllergyIntolerance","verificationStatus":{"coding":[{"code":"unconfirmed","display":"Unconfirmed","system":"http://terminology.hl7.org/CodeSystem/allergyintolerance-verification"}]}}},{"fullUrl":"urn:uuid:36389b48-7deb-464b-b9a1-69c8c9102576","resource":{"category":["medication"],"clinicalStatus":{"coding":[{"code":"inactive","display":"Inactive","system":"http://terminology.hl7.org/CodeSystem/allergyintolerance-clinical"}]},"code":{"coding":[{"code":"ID_BB3CB081-721C-455F-9B6C-65A8B211B3FA","display":"Pinex","system":"http://nhn.no/kj/fhir/CodeSystem/DrugTradeName"}]},"criticality":"high","extension":[{"url":"http://nhn.no/kj/fhir/StructureDefinition/KjUpdatedDateTime","valueDateTime":"2025-01-23T13:25:41+01:00"},{"url":"http://nhn.no/kj/fhir/StructureDefinition/KjSourceOfInformation","valueCoding":{"code":"2","display":"Observert av behandlende lege","system":"http://nhn.no/kj/fhir/CodeSystem/SourceOfInformation"}}],"id":"b75061da-b450-40cc-9055-53764a2a6e01","identifier":[{"use":"official","value":"b75061da-b450-40cc-9055-53764a2a6e01"}],"meta":{"profile":["http://nhn.no/kj/fhir/StructureDefinition/KjAllergyIntolerance"]},"patient":{"display":"Jeo 53 Test","reference":"urn:uuid:aa2377b7-b9b7-45fa-948b-4d817ecc899d","type":"http://ehelse.no/fhir/StructureDefinition/sfm-Patient"},"reaction":[{"manifestation":[{"coding":[{"code":"10","display":"Hudreaksjon INA","system":"http://nhn.no/kj/fhir/CodeSystem/TypeOfReaction"}]}]}],"recordedDate":"2025-01-23T13:25:41+01:00","recorder":{"display":"Jesper Odd Hansen, HPR: 7479654, DIPS SFM Testsykehus, HER: 79744, LE:","reference":"urn:uuid:6e9e66dc-2a62-4d36-9232-9bee16455b04","type":"http://nhn.no/kj/fhir/StructureDefinition/KjPractitionerRole"},"resourceType":"AllergyIntolerance","verificationStatus":{"coding":[{"code":"refuted","display":"Refuted","system":"http://terminology.hl7.org/CodeSystem/allergyintolerance-verification"}]}}}],"id":"188f153f-4142-4f70-9799-cda0d39f0055","link":[{"relation":"self","url":"http://base-fhir.test5.forskrivning.no/patient/$getMedication"}],"meta":{"lastUpdated":"2025-02-25T07:23:52.8391054+01:00","profile":["http://ehelse.no/fhir/StructureDefinition/sfm-MedicationBundle"],"source":"http://base-fhir.test5.forskrivning.no/Patient/$getMedication"},"resourceType":"Bundle","timestamp":"2025-02-25T07:23:52.8391035+01:00","total":55,"type":"document"}},{"name":"KJHentetTidspunkt","valueDateTime":"2025-02-25T07:23:52.6548016+01:00"},{"name":"RFHentetTidspunkt","valueDateTime":"2025-02-25T07:23:52.587+01:00"},{"name":"KJFeilkode","valueCodeableConcept":{"coding":[{"code":"5","display":"Ingen rettighet til KJ oppslag","system":"http://ehelse.no/fhir/CodeSystem/sfm-kj-rf-error-code"}],"text":"Ingen rettighet til KJ oppslag"}},{"name":"RFM96Feilkode","valueCodeableConcept":{"coding":[{"code":"0","display":"OK","system":"http://ehelse.no/fhir/CodeSystem/sfm-kj-rf-error-code"}]}},{"name":"RFM912Feilkode","valueCodeableConcept":{"coding":[{"code":"0","display":"OK","system":"http://ehelse.no/fhir/CodeSystem/sfm-kj-rf-error-code"}]}},{"name":"KJHarLegemidler","valueBoolean":false},{"name":"KJHarLaste","valueBoolean":false},{"name":"RFHarLaste","valueBoolean":false}],"resourceType":"Parameters"}