{"parameter":[{"name":"medication","resource":{"entry":[{"fullUrl":"urn:uuid:bac22cf6-ff20-4ecb-bb03-fd10a1d70dd7","resource":{"author":[{"display":"Jesper Odd Hansen, HPR: 7479654","reference":"urn:uuid:37aec604-e173-4818-a998-dca12b5542e4","type":"http://ehelse.no/fhir/StructureDefinition/sfm-Practitioner"},{"display":"HER: 8141719","reference":"urn:uuid:582903da-b7a9-4823-aa0a-8ae3bd57f8a9","type":"http://ehelse.no/fhir/StructureDefinition/sfm-Organization"}],"confidentiality":"N","date":"2024-01-12","id":"97ac74e8-722f-4c7f-85ad-4425c19a9747","identifier":{"use":"official","value":"7dcb8b62-bc40-4250-97cd-1aa00763db67"},"meta":{"profile":["http://ehelse.no/fhir/StructureDefinition/sfm-MedicationComposition"]},"resourceType":"Composition","section":[{"code":{"coding":[{"code":"sectionMedication","display":"List of Medication statements","system":"http://ehelse.no/fhir/CodeSystem/sfm-section-types"}]},"entry":[{"display":"Glucos. B. Braun inf, oppl 200 mg/ml ad, Cetirizin 0,01 mg inj/inf, oppl 750 mg","reference":"urn:uuid:9cda4773-657d-47cf-8510-101ed64b2623","type":"http://ehelse.no/fhir/StructureDefinition/sfm-MedicationStatement"},{"display":"Aerius tab 5 mg","reference":"urn:uuid:0a046ade-4a31-47ac-adb7-dc6643ea0435","type":"http://ehelse.no/fhir/StructureDefinition/sfm-MedicationStatement"}],"text":{"div":"<xhtml:div xmlns:xhtml=\"http://www.w3.org/1999/xhtml\">List of medications</xhtml:div>","status":"generated"},"title":"Medication"},{"code":{"coding":[{"code":"sectionPLLinfo","display":"PLL Info","system":"http://ehelse.no/fhir/CodeSystem/sfm-section-types"}]},"entry":[{"display":"sfm-PLL-info","reference":"urn:uuid:1a1bb604-46f1-4ca3-ada9-20ed2b732858","type":"http://ehelse.no/fhir/StructureDefinition/sfm-PLL-info"}],"text":{"div":"<xhtml:div xmlns:xhtml=\"http://www.w3.org/1999/xhtml\">Info read from M25</xhtml:div>","status":"generated"},"title":"PllInfo"},{"code":{"coding":[{"code":"sectionAllergies","display":"Section allergies","system":"http://ehelse.no/fhir/CodeSystem/sfm-section-types"}]},"entry":[{"display":"KjAllergyIntolerance","reference":"urn:uuid:8a1cdfcf-a38c-4ab4-a77c-d7c48c4b210b","type":"http://nhn.no/kj/fhir/StructureDefinition/KjAllergyIntolerance"},{"display":"KjAllergyIntolerance","reference":"urn:uuid:5645e272-e428-4aca-aba7-7e15210986ec","type":"http://nhn.no/kj/fhir/StructureDefinition/KjAllergyIntolerance"},{"display":"KjAllergyIntolerance","reference":"urn:uuid:7abd0392-4347-4e25-8108-84bafb701a7e","type":"http://nhn.no/kj/fhir/StructureDefinition/KjAllergyIntolerance"}],"text":{"div":"<xhtml:div xmlns:xhtml=\"http://www.w3.org/1999/xhtml\">List of allergies</xhtml:div>","status":"generated"},"title":"Allergies"},{"code":{"coding":[{"code":"sectionOtherPrescriptions","display":"List of non medical prescriptions","system":"http://ehelse.no/fhir/CodeSystem/sfm-section-types"}]},"entry":[{"display":"sfm-BandaPrescription","reference":"urn:uuid:5bf154a7-47a7-4eb0-bd5f-2074611c3f11","type":"http://ehelse.no/fhir/StructureDefinition/sfm-BandaPrescription"}],"text":{"div":"<xhtml:div xmlns:xhtml=\"http://www.w3.org/1999/xhtml\">List of non medical prescriptions</xhtml:div>","status":"generated"},"title":"Other Prescriptions"}],"status":"final","subject":{"display":"Jeo 48 Test","reference":"urn:uuid:df44ee8f-db34-4129-bf20-6f97201297ca","type":"http://ehelse.no/fhir/StructureDefinition/sfm-Patient"},"title":"Medication summary","type":{"coding":[{"code":"11503-0","display":"Medical records","system":"http://loinc.org"}]}}},{"fullUrl":"urn:uuid:37aec604-e173-4818-a998-dca12b5542e4","resource":{"active":true,"birthDate":"1982-04-23","gender":"female","id":"311225268","identifier":[{"system":"urn:oid:2.16.578.1.12.4.1.4.4","type":{"coding":[{"code":"HPR-nummer","system":"http://hl7.no/fhir/NamingSystem/HPR"}]},"use":"official","value":"7479654"},{"system":"urn:oid:2.16.578.1.12.4.1.4.1","type":{"coding":[{"code":"FNR-nummer","system":"http://hl7.no/fhir/NamingSystem/FNR"}]},"use":"official","value":"23048201385"}],"meta":{"profile":["http://ehelse.no/fhir/StructureDefinition/sfm-Practitioner"]},"name":[{"family":"Hansen","given":["Jesper Odd"],"use":"official"}],"resourceType":"Practitioner"}},{"fullUrl":"urn:uuid:582903da-b7a9-4823-aa0a-8ae3bd57f8a9","resource":{"id":"1612787981","identifier":[{"system":"urn:oid:2.16.578.1.12.4.1.2","use":"official","value":"8141719"}],"meta":{"profile":["http://ehelse.no/fhir/StructureDefinition/sfm-Organization"]},"name":"DIPS-SFM Testsykehuset HF 2","resourceType":"Organization"}},{"fullUrl":"urn:uuid:df44ee8f-db34-4129-bf20-6f97201297ca","resource":{"active":true,"address":[{"city":"FAUSKE","postalCode":"8200","type":"postal"}],"birthDate":"2001-12-06","gender":"male","id":"1874803806","identifier":[{"system":"urn:oid:2.16.578.1.12.4.1.4.1","type":{"coding":[{"code":"FNR-nummer","system":"http://hl7.no/fhir/NamingSystem/FNR"}]},"use":"official","value":"06120182763"}],"meta":{"profile":["http://ehelse.no/fhir/StructureDefinition/sfm-Patient"]},"name":[{"family":"Test","given":["Jeo 48"]}],"resourceType":"Patient"}},{"fullUrl":"urn:uuid:a465113d-eee3-4675-8d6d-9e75fdeaa3a2","resource":{"code":{"coding":[{"code":"ID_B244BA72-8177-430E-94DB-F98063EB3D36","display":"Glucos. B. Braun inf, oppl 200 mg/ml","system":"http://ehelse.no/fhir/CodeSystem/FEST"},{"code":"B05BA03","display":"Karbohydrater","system":"http://www.whocc.no/atc"}]},"extension":[{"extension":[{"url":"prescriptiongroup","valueCodeableConcept":{"coding":[{"code":"C","display":"Reseptgruppe C","system":"urn:oid:2.16.578.1.12.4.1.1.7421"}]}}],"url":"http://hl7.no/fhir/StructureDefinition/no-basis-prescriptiongroup"},{"extension":[{"url":"registreringstype","valueCodeableConcept":{"coding":[{"code":"2","display":"Legemiddelmerkevare","system":"http://ehelse.no/fhir/CodeSystem/sfm-festregistrationtype"}]}},{"url":"name","valueString":"Glucos. B. Braun"}],"url":"http://ehelse.no/fhir/StructureDefinition/sfm-medicationdetails"}],"form":{"coding":[{"code":"858","display":"Infusjonsvæske, oppløsning","system":"urn:oid:2.16.578.1.12.4.1.1.7448"}]},"id":"743864021","identifier":[{"type":{"text":"identifier"},"use":"official","value":"ID_B244BA72-8177-430E-94DB-F98063EB3D36"}],"meta":{"profile":["http://hl7.org/fhir/StructureDefinition/Medication"]},"resourceType":"Medication","status":"active"}},{"fullUrl":"urn:uuid:f106d434-6546-46aa-a943-e10e021f0a55","resource":{"code":{"coding":[{"code":"ID_9132CC79-2D51-4E6E-91CD-DA9F1D62C125","display":"Cetirizin","system":"http://ehelse.no/fhir/CodeSystem/FEST"}]},"id":"30130476","identifier":[{"type":{"text":"identifier"},"use":"official","value":"ID_9132CC79-2D51-4E6E-91CD-DA9F1D62C125"}],"meta":{"profile":["http://ehelse.no/fhir/StructureDefinition/sfm-Substance"]},"resourceType":"Substance","status":"active"}},{"fullUrl":"urn:uuid:f1b7d671-a3cf-4a19-8c59-ea626e7d706b","resource":{"amount":{"numerator":{"unit":"mg","value":750}},"code":{"coding":[{"code":"10","display":"Magistrell","system":"urn:oid:2.16.578.1.12.4.1.1.7424"}]},"extension":[{"url":"http://hl7.no/fhir/StructureDefinition/no-basis-prescriptiongroup","valueCodeableConcept":{"coding":[{"code":"C","display":"Reseptgruppe C","system":"urn:oid:2.16.578.1.12.4.1.1.7421"}]}},{"url":"http://ehelse.no/fhir/StructureDefinition/sfm-name","valueString":"Glucos. B. Braun inf, oppl 200 mg/ml ad, Cetirizin 0,01 mg inj/inf, oppl 750 mg"},{"url":"http://ehelse.no/fhir/StructureDefinition/sfm-recipe","valueString":"prcip"}],"form":{"coding":[{"code":"880","display":"inj/inf, oppl","system":"urn:oid:2.16.578.1.12.4.1.1.7448"}]},"id":"50657394","ingredient":[{"extension":[{"extension":[{"url":"ad","valueBoolean":true}],"url":"http://ehelse.no/fhir/StructureDefinition/sfm-adqs"}],"isActive":false,"itemReference":{"display":"Glucos. B. Braun inf, oppl 200 mg/ml","reference":"urn:uuid:a465113d-eee3-4675-8d6d-9e75fdeaa3a2","type":"http://ehelse.no/fhir/StructureDefinition/sfm-Medication"}},{"isActive":true,"itemReference":{"display":"Cetirizin","reference":"urn:uuid:f106d434-6546-46aa-a943-e10e021f0a55","type":"http://ehelse.no/fhir/StructureDefinition/sfm-Substance"},"strength":{"numerator":{"unit":"mg","value":0.01}}}],"meta":{"profile":["http://ehelse.no/fhir/StructureDefinition/sfm-Magistrell-Medication"]},"resourceType":"Medication","status":"active"}},{"fullUrl":"urn:uuid:9cda4773-657d-47cf-8510-101ed64b2623","resource":{"dosage":[{"extension":[{"url":"http://ehelse.no/fhir/StructureDefinition/sfm-use","valueCodeableConcept":{"coding":[{"code":"1","display":"Fast","system":"urn:oid:2.16.578.1.12.4.1.1.9101"}]}},{"extension":[{"url":"text","valueString":"1"}],"url":"http://ehelse.no/fhir/StructureDefinition/sfm-application-area"}],"sequence":1,"text":"1"}],"extension":[{"extension":[{"url":"reseptdate","valueDate":"2023-12-06"},{"url":"expirationdate","valueDate":"2024-12-05"},{"url":"festUpdate","valueDateTime":"2023-11-24T11:58:58+00:00"},{"url":"dssn","valueString":"1"},{"url":"numberofpackages","valueDecimal":2},{"url":"reit","valueString":"0"},{"url":"itemgroup","valueCodeableConcept":{"coding":[{"code":"L","display":"Legemiddel","system":"urn:oid:2.16.578.1.12.4.1.1.7402"}]}},{"extension":[{"url":"status","valueCodeableConcept":{"coding":[{"code":"E","display":"Ekspederbar","system":"urn:oid:2.16.578.1.12.4.1.1.7408"}]}}],"url":"rfstatus"},{"url":"lastchanged","valueDateTime":"2024-01-12T12:13:58.927493+01:00"},{"url":"typeresept","valueCodeableConcept":{"coding":[{"code":"E","display":"Eresept","system":"urn:oid:2.16.578.1.12.4.1.1.7491"}]}}],"url":"http://ehelse.no/fhir/StructureDefinition/sfm-reseptamendment"},{"extension":[{"url":"status","valueCodeableConcept":{"coding":[{"code":"3","display":"Godkjent","system":"http://ehelse.no/fhir/CodeSystem/sfm-medicationstatement-registration-status"}]}},{"url":"type","valueCodeableConcept":{"coding":[{"code":"1","display":"Forskrevet av","system":"http://ehelse.no/fhir/CodeSystem/sfm-performer-roles"}]}},{"url":"provider","valueReference":{"display":"Jesper Odd Hansen, HPR: 7479654","reference":"urn:uuid:37aec604-e173-4818-a998-dca12b5542e4","type":"http://ehelse.no/fhir/StructureDefinition/sfm-Practitioner"}},{"url":"timestamp","valueDateTime":"2023-12-06T13:36:36.658+01:00"}],"url":"http://ehelse.no/fhir/StructureDefinition/sfm-regInfo"},{"extension":[{"url":"genericSubstitutionAccepted","valueBoolean":true}],"url":"http://ehelse.no/fhir/StructureDefinition/sfm-generic-substitution"}],"id":"1157715217","identifier":[{"type":{"text":"PLL"},"use":"usual","value":"50df3c64-c029-4984-a3dd-1e6286213677"},{"type":{"text":"ReseptId"},"use":"usual","value":"7fd3e0c6-1c19-4e0b-b60d-dd006d1ce5d0"}],"medicationReference":{"display":"Glucos. B. Braun inf, oppl 200 mg/ml ad, Cetirizin 0,01 mg inj/inf, oppl 750 mg","reference":"urn:uuid:f1b7d671-a3cf-4a19-8c59-ea626e7d706b","type":"http://ehelse.no/fhir/StructureDefinition/sfm-Magistrell-Medication"},"meta":{"profile":["http://ehelse.no/fhir/StructureDefinition/sfm-MedicationStatement"]},"resourceType":"MedicationStatement","status":"active","subject":{"display":"Jeo 48 Test","reference":"urn:uuid:df44ee8f-db34-4129-bf20-6f97201297ca","type":"http://ehelse.no/fhir/StructureDefinition/sfm-Patient"}}},{"fullUrl":"urn:uuid:da7919a4-bea9-43b9-bd93-86ce40fe362e","resource":{"amount":{"extension":[{"extension":[{"url":"quantity","valueQuantity":{"unit":"stk","value":100}},{"url":"amounttext","valueString":"100 stk"}],"url":"http://ehelse.no/fhir/StructureDefinition/sfm-amountText"}]},"code":{"coding":[{"code":"472759","display":"Aerius tab 5 mg","system":"http://ehelse.no/fhir/CodeSystem/FEST"},{"code":"R06AX27","display":"Desloratadin","system":"http://www.whocc.no/atc"}]},"extension":[{"extension":[{"url":"prescriptiongroup","valueCodeableConcept":{"coding":[{"code":"C","display":"Reseptgruppe C","system":"urn:oid:2.16.578.1.12.4.1.1.7421"}]}}],"url":"http://hl7.no/fhir/StructureDefinition/no-basis-prescriptiongroup"},{"extension":[{"url":"registreringstype","valueCodeableConcept":{"coding":[{"code":"3","display":"Legemiddelpakning","system":"http://ehelse.no/fhir/CodeSystem/sfm-festregistrationtype"}]}},{"extension":[{"url":"name","valueString":"Aerius"},{"url":"packingsize","valueString":"100"},{"url":"packingunit","valueCodeableConcept":{"coding":[{"code":"stk","display":"stykk","system":"urn:oid:2.16.578.1.12.4.1.1.7452"}]}}],"url":"packinginfoprescription"}],"url":"http://ehelse.no/fhir/StructureDefinition/sfm-medicationdetails"}],"form":{"coding":[{"code":"53","display":"Tablett","system":"urn:oid:2.16.578.1.12.4.1.1.7448"}]},"id":"434808400","identifier":[{"type":{"text":"identifier"},"use":"official","value":"472759"}],"meta":{"profile":["http://ehelse.no/fhir/StructureDefinition/sfm-Medication"]},"resourceType":"Medication","status":"active"}},{"fullUrl":"urn:uuid:0a046ade-4a31-47ac-adb7-dc6643ea0435","resource":{"dosage":[{"extension":[{"url":"http://ehelse.no/fhir/StructureDefinition/sfm-shortdosage","valueCodeableConcept":{"coding":[{"code":"5507","display":"1+0+0+0","system":"urn:oid:2.16.578.1.12.4.1.1.7478"}]}},{"url":"http://ehelse.no/fhir/StructureDefinition/sfm-use","valueCodeableConcept":{"coding":[{"code":"1","display":"Fast","system":"urn:oid:2.16.578.1.12.4.1.1.9101"}]}},{"extension":[{"url":"text","valueString":"MOT ALLERGI"}],"url":"http://ehelse.no/fhir/StructureDefinition/sfm-application-area"}],"sequence":1,"text":"1 tablett morgen"}],"extension":[{"extension":[{"url":"reseptdate","valueDate":"2023-12-20"},{"url":"expirationdate","valueDate":"2024-12-18"},{"url":"festUpdate","valueDateTime":"2023-12-20T11:54:48.9287539+00:00"},{"url":"guardiantransparencyreservation","valueBoolean":false},{"url":"indoctorsname","valueBoolean":false},{"url":"dssn","valueString":"1 tablett morgen"},{"url":"lockedresept","valueBoolean":false},{"url":"numberofpackages","valueDecimal":1},{"url":"reit","valueString":"0"},{"url":"itemgroup","valueCodeableConcept":{"coding":[{"code":"L","display":"Legemiddel","system":"urn:oid:2.16.578.1.12.4.1.1.7402"}]}},{"url":"reimbursementcode","valueCodeableConcept":{"coding":[{"code":"J30","display":"Vasomotorisk og allergisk rinitt","system":"urn:oid:2.16.578.1.12.4.1.1.7435"}]}},{"url":"reimbursementparagraph","valueCodeableConcept":{"coding":[{"code":"200","display":"§5-14 §2","system":"urn:oid:2.16.578.1.12.4.1.1.7427"}]}},{"extension":[{"url":"starttime","valueDate":"2023-12-20"},{"extension":[{"url":"amount","valueQuantity":{"unit":"tablett","value":1}},{"url":"interval","valueQuantity":{"unit":"Døgn","value":1}},{"url":"accurate","valueBoolean":false},{"url":"timerange","valueCodeableConcept":{"coding":[{"code":"1","display":"Morgen","system":"urn:oid:2.16.578.1.12.4.1.1.8325"}]}}],"url":"repeatingdosage"}],"url":"ereseptdosing"},{"extension":[{"url":"status","valueCodeableConcept":{"coding":[{"code":"E","display":"Ekspederbar","system":"urn:oid:2.16.578.1.12.4.1.1.7408"}]}}],"url":"rfstatus"},{"url":"lastchanged","valueDateTime":"2024-01-12T12:13:58.927493+01:00"},{"url":"typeresept","valueCodeableConcept":{"coding":[{"code":"E","display":"Eresept","system":"urn:oid:2.16.578.1.12.4.1.1.7491"}]}}],"url":"http://ehelse.no/fhir/StructureDefinition/sfm-reseptamendment"},{"extension":[{"url":"status","valueCodeableConcept":{"coding":[{"code":"3","display":"Godkjent","system":"http://ehelse.no/fhir/CodeSystem/sfm-medicationstatement-registration-status"}]}},{"url":"type","valueCodeableConcept":{"coding":[{"code":"1","display":"Forskrevet av","system":"http://ehelse.no/fhir/CodeSystem/sfm-performer-roles"}]}},{"url":"provider","valueReference":{"display":"Jesper Odd Hansen, HPR: 7479654","reference":"urn:uuid:37aec604-e173-4818-a998-dca12b5542e4","type":"http://ehelse.no/fhir/StructureDefinition/sfm-Practitioner"}},{"url":"timestamp","valueDateTime":"2023-12-20T11:54:49.9432968+01:00"}],"url":"http://ehelse.no/fhir/StructureDefinition/sfm-regInfo"},{"extension":[{"url":"genericSubstitutionAccepted","valueBoolean":true}],"url":"http://ehelse.no/fhir/StructureDefinition/sfm-generic-substitution"}],"id":"1026904440","identifier":[{"type":{"text":"PLL"},"use":"usual","value":"125719a6-4584-4995-89a6-0077f1786f1d"},{"type":{"text":"ReseptId"},"use":"usual","value":"6de656d0-b274-4b90-aeeb-a308759d01ec"}],"medicationReference":{"display":"Aerius tab 5 mg","reference":"urn:uuid:da7919a4-bea9-43b9-bd93-86ce40fe362e","type":"http://ehelse.no/fhir/StructureDefinition/sfm-Medication"},"meta":{"profile":["http://ehelse.no/fhir/StructureDefinition/sfm-MedicationStatement"]},"resourceType":"MedicationStatement","status":"active","subject":{"display":"Jeo 48 Test","reference":"urn:uuid:df44ee8f-db34-4129-bf20-6f97201297ca","type":"http://ehelse.no/fhir/StructureDefinition/sfm-Patient"}}},{"fullUrl":"urn:uuid:1d6632d8-2dec-425e-a27b-5032a403191d","resource":{"code":[{"coding":[{"code":"R","display":"Rekvirent","system":"urn:oid:2.16.578.1.12.4.1.1.7490"}]}],"id":"1810874371","meta":{"profile":["http://ehelse.no/fhir/StructureDefinition/sfm-PractitionerRole"]},"practitioner":{"display":"Jesper Odd Hansen, HPR: 7479654","identifier":{"system":"urn:oid:2.16.578.1.12.4.1.4.4","type":{"coding":[{"code":"HPR-nummer","system":"http://hl7.no/fhir/NamingSystem/HPR"}]},"use":"official","value":"7479654"},"reference":"urn:uuid:37aec604-e173-4818-a998-dca12b5542e4","type":"http://ehelse.no/fhir/StructureDefinition/sfm-Practitioner"},"resourceType":"PractitionerRole"}},{"fullUrl":"urn:uuid:5bf154a7-47a7-4eb0-bd5f-2074611c3f11","resource":{"author":{"display":"Jesper Odd Hansen, HPR: 7479654, R:Rekvirent","reference":"urn:uuid:1d6632d8-2dec-425e-a27b-5032a403191d","type":"http://ehelse.no/fhir/StructureDefinition/sfm-PractitionerRole"},"code":{"coding":[{"code":"A","display":"Annet","system":"urn:oid:2.16.578.1.12.4.1.1.7402"}]},"extension":[{"extension":[{"url":"productgroup","valueCodeableConcept":{"coding":[{"code":"601","display":"Næringsmidler ved diverse tilstander","system":"urn:oid:2.16.578.1.12.4.1.1.7403"}]}}],"url":"http://ehelse.no/fhir/StructureDefinition/sfm-reseptdocbanda"},{"extension":[{"url":"reseptdate","valueDate":"2023-12-20"},{"url":"expirationdate","valueDate":"2024-12-19"},{"url":"festUpdate","valueDateTime":"2023-12-20T11:54:48.9363852+00:00"},{"url":"guardiantransparencyreservation","valueBoolean":false},{"url":"indoctorsname","valueBoolean":false},{"url":"dssn","valueString":"test"},{"url":"lockedresept","valueBoolean":false},{"url":"itemgroup","valueCodeableConcept":{"coding":[{"code":"A","display":"Annet","system":"urn:oid:2.16.578.1.12.4.1.1.7402"}]}},{"url":"reimbursementparagraph","valueCodeableConcept":{"coding":[{"code":"601","display":"§5-14 §6.1","system":"urn:oid:2.16.578.1.12.4.1.1.7427"}]}},{"extension":[{"url":"status","valueCodeableConcept":{"coding":[{"code":"E","display":"Ekspederbar","system":"urn:oid:2.16.578.1.12.4.1.1.7408"}]}}],"url":"rfstatus"},{"url":"typeresept","valueCodeableConcept":{"coding":[{"code":"E","display":"Eresept","system":"urn:oid:2.16.578.1.12.4.1.1.7491"}]}}],"url":"http://ehelse.no/fhir/StructureDefinition/sfm-reseptamendment"}],"id":"8b3cf341-99dd-430b-a019-9f8f5fd52b28","identifier":[{"type":{"text":"reseptId"},"use":"official","value":"89f96dc2-1e0b-4882-85ff-a532e8fb3940"}],"meta":{"profile":["http://ehelse.no/fhir/StructureDefinition/sfm-BandaPrescription"]},"resourceType":"Basic","subject":{"display":"Jeo 48 Test","reference":"urn:uuid:df44ee8f-db34-4129-bf20-6f97201297ca","type":"http://ehelse.no/fhir/StructureDefinition/sfm-Patient"}}},{"fullUrl":"urn:uuid:47b4eaa6-0458-4e6f-9e02-528c39dc6d6f","resource":{"code":[{"coding":[{"system":"urn:oid:2.16.578.1.12.4.1.1.7490"}],"text":"PLL author"}],"id":"547957327","meta":{"profile":["http://ehelse.no/fhir/StructureDefinition/sfm-PractitionerRole"]},"organization":{"display":"DIPS-SFM Testsykehuset HF 2, HER: 8141719","identifier":{"system":"urn:oid:2.16.578.1.12.4.1.2","use":"official","value":"8141719"},"reference":"urn:uuid:582903da-b7a9-4823-aa0a-8ae3bd57f8a9","type":"http://ehelse.no/fhir/StructureDefinition/sfm-Organization"},"practitioner":{"display":"Jesper Odd Hansen, HPR: 7479654","identifier":{"system":"urn:oid:2.16.578.1.12.4.1.4.4","type":{"coding":[{"code":"HPR-nummer","system":"http://hl7.no/fhir/NamingSystem/HPR"}]},"use":"official","value":"7479654"},"reference":"urn:uuid:37aec604-e173-4818-a998-dca12b5542e4","type":"http://ehelse.no/fhir/StructureDefinition/sfm-Practitioner"},"resourceType":"PractitionerRole"}},{"fullUrl":"urn:uuid:1a1bb604-46f1-4ca3-ada9-20ed2b732858","resource":{"author":{"display":"Jesper Odd Hansen, HPR: 7479654, DIPS-SFM Testsykehuset HF 2, HER: 8141719","reference":"urn:uuid:47b4eaa6-0458-4e6f-9e02-528c39dc6d6f","type":"http://ehelse.no/fhir/StructureDefinition/sfm-PractitionerRole"},"code":{"coding":[{"code":"M25.1","display":"PLL","system":"http://ehelse.no/fhir/CodeSystem/sfm-message-type"}]},"extension":[{"extension":[{"url":"PLLdate","valueDateTime":"2024-01-12T12:14:05.2232291+01:00"},{"url":"substitute","valueBoolean":false}],"url":"http://ehelse.no/fhir/StructureDefinition/sfm-pllInformation"}],"id":"58c8761d-85d1-4c64-8b50-e524ad708a89","identifier":[{"use":"usual","value":"4fb45e3a-45f4-47dd-8404-2389283664ff"}],"meta":{"profile":["http://ehelse.no/fhir/StructureDefinition/sfm-PLL-info"]},"resourceType":"Basic","subject":{"display":"Jeo 48 Test","reference":"urn:uuid:df44ee8f-db34-4129-bf20-6f97201297ca","type":"http://ehelse.no/fhir/StructureDefinition/sfm-Patient"}}},{"fullUrl":"urn:uuid:3772fe39-c149-4086-a995-fc79340d9258","resource":{"code":[{"coding":[{"code":"LE","system":"http://nhn.no/kj/fhir/CodeSystem/CategoriesOfHealthProfessionals"}],"text":"Lege"}],"id":"751440840","meta":{"profile":["http://nhn.no/kj/fhir/StructureDefinition/KjPractitionerRole"]},"organization":{"display":"DIPS-SFM Testsykehuset HF 2, HER: 8141719","identifier":{"system":"urn:oid:2.16.578.1.12.4.1.2","use":"official","value":"8141719"},"reference":"urn:uuid:582903da-b7a9-4823-aa0a-8ae3bd57f8a9","type":"http://ehelse.no/fhir/StructureDefinition/sfm-Organization"},"practitioner":{"display":"Jesper Odd Hansen, HPR: 7479654","identifier":{"system":"urn:oid:2.16.578.1.12.4.1.4.4","type":{"coding":[{"code":"HPR-nummer","system":"http://hl7.no/fhir/NamingSystem/HPR"}]},"use":"official","value":"7479654"},"reference":"urn:uuid:37aec604-e173-4818-a998-dca12b5542e4","type":"http://ehelse.no/fhir/StructureDefinition/sfm-Practitioner"},"resourceType":"PractitionerRole"}},{"fullUrl":"urn:uuid:8a1cdfcf-a38c-4ab4-a77c-d7c48c4b210b","resource":{"category":["medication"],"clinicalStatus":{"coding":[{"code":"active","display":"Active","system":"http://terminology.hl7.org/CodeSystem/allergyintolerance-clinical"}]},"code":{"coding":[{"code":"B01AD06","display":"Brinase","system":"http://nhn.no/kj/fhir/CodeSystem/ATC"}]},"criticality":"high","extension":[{"url":"http://nhn.no/kj/fhir/StructureDefinition/KjUpdatedDateTime","valueDateTime":"2022-12-20T15:47:39.96+01:00"},{"url":"http://nhn.no/kj/fhir/StructureDefinition/KjSourceOfInformation","valueCoding":{"code":"5","display":"Hentet fra tidligere journal","system":"http://nhn.no/kj/fhir/CodeSystem/SourceOfInformation"}}],"id":"e98106eb-b6dd-4e68-8cea-2516fe042d98","identifier":[{"use":"official","value":"e98106eb-b6dd-4e68-8cea-2516fe042d98"}],"meta":{"profile":["http://nhn.no/kj/fhir/StructureDefinition/KjAllergyIntolerance"]},"patient":{"display":"Jeo 48 Test","reference":"urn:uuid:df44ee8f-db34-4129-bf20-6f97201297ca","type":"http://ehelse.no/fhir/StructureDefinition/sfm-Patient"},"reaction":[{"manifestation":[{"coding":[{"code":"9","display":"Angioødem/alvorlig generalisert urticaria","system":"http://nhn.no/kj/fhir/CodeSystem/TypeOfReaction"}]}]}],"recordedDate":"2024-01-12","recorder":{"display":"Jesper Odd Hansen, HPR: 7479654, DIPS-SFM Testsykehuset HF 2, HER: 8141719, LE:","reference":"urn:uuid:3772fe39-c149-4086-a995-fc79340d9258","type":"http://nhn.no/kj/fhir/StructureDefinition/KjPractitionerRole"},"resourceType":"AllergyIntolerance","verificationStatus":{"coding":[{"code":"unconfirmed","display":"Unconfirmed","system":"http://terminology.hl7.org/CodeSystem/allergyintolerance-verification"}]}}},{"fullUrl":"urn:uuid:5645e272-e428-4aca-aba7-7e15210986ec","resource":{"category":["medication"],"clinicalStatus":{"coding":[{"code":"active","display":"Active","system":"http://terminology.hl7.org/CodeSystem/allergyintolerance-clinical"}]},"code":{"coding":[{"code":"ID_88E11551-50D3-4B68-B295-82997FA909A0","display":"Hydrocortisone","system":"http://nhn.no/kj/fhir/CodeSystem/DrugTradeName"}]},"criticality":"high","extension":[{"url":"http://nhn.no/kj/fhir/StructureDefinition/KjUpdatedDateTime","valueDateTime":"2022-12-20T15:47:48.463+01:00"},{"url":"http://nhn.no/kj/fhir/StructureDefinition/KjSourceOfInformation","valueCoding":{"code":"2","display":"Observert av behandlende lege","system":"http://nhn.no/kj/fhir/CodeSystem/SourceOfInformation"}}],"id":"7cda60f1-5ed8-4edc-8147-edcae80a2320","identifier":[{"use":"official","value":"7cda60f1-5ed8-4edc-8147-edcae80a2320"}],"meta":{"profile":["http://nhn.no/kj/fhir/StructureDefinition/KjAllergyIntolerance"]},"patient":{"display":"Jeo 48 Test","reference":"urn:uuid:df44ee8f-db34-4129-bf20-6f97201297ca","type":"http://ehelse.no/fhir/StructureDefinition/sfm-Patient"},"reaction":[{"manifestation":[{"coding":[{"code":"3","display":"Arytmi (hjerterytmeforstyrrelse)","system":"http://nhn.no/kj/fhir/CodeSystem/TypeOfReaction"}]}]}],"recordedDate":"2024-01-12","recorder":{"display":"Jesper Odd Hansen, HPR: 7479654, DIPS-SFM Testsykehuset HF 2, HER: 8141719, LE:","reference":"urn:uuid:3772fe39-c149-4086-a995-fc79340d9258","type":"http://nhn.no/kj/fhir/StructureDefinition/KjPractitionerRole"},"resourceType":"AllergyIntolerance","verificationStatus":{"coding":[{"code":"unconfirmed","display":"Unconfirmed","system":"http://terminology.hl7.org/CodeSystem/allergyintolerance-verification"}]}}},{"fullUrl":"urn:uuid:7abd0392-4347-4e25-8108-84bafb701a7e","resource":{"category":["medication"],"clinicalStatus":{"coding":[{"code":"active","display":"Active","system":"http://terminology.hl7.org/CodeSystem/allergyintolerance-clinical"}]},"code":{"coding":[{"code":"ID_11F00EAB-8F55-4BDF-96E3-8C4F413635AE","display":"Kabazitakselaceton","system":"http://nhn.no/kj/fhir/CodeSystem/ActiveSubstance"}]},"criticality":"high","extension":[{"url":"http://nhn.no/kj/fhir/StructureDefinition/KjUpdatedDateTime","valueDateTime":"2022-12-20T15:47:56.08+01:00"},{"url":"http://nhn.no/kj/fhir/StructureDefinition/KjSourceOfInformation","valueCoding":{"code":"6","display":"Annet","system":"http://nhn.no/kj/fhir/CodeSystem/SourceOfInformation"}}],"id":"734dcb27-1c14-462f-9a93-ad57b98f5649","identifier":[{"use":"official","value":"734dcb27-1c14-462f-9a93-ad57b98f5649"}],"meta":{"profile":["http://nhn.no/kj/fhir/StructureDefinition/KjAllergyIntolerance"]},"patient":{"display":"Jeo 48 Test","reference":"urn:uuid:df44ee8f-db34-4129-bf20-6f97201297ca","type":"http://ehelse.no/fhir/StructureDefinition/sfm-Patient"},"reaction":[{"manifestation":[{"coding":[{"code":"1","display":"Anafylaktisk reaksjon","system":"http://nhn.no/kj/fhir/CodeSystem/TypeOfReaction"}]}]}],"recordedDate":"2024-01-12","recorder":{"display":"Jesper Odd Hansen, HPR: 7479654, DIPS-SFM Testsykehuset HF 2, HER: 8141719, LE:","reference":"urn:uuid:3772fe39-c149-4086-a995-fc79340d9258","type":"http://nhn.no/kj/fhir/StructureDefinition/KjPractitionerRole"},"resourceType":"AllergyIntolerance","verificationStatus":{"coding":[{"code":"unconfirmed","display":"Unconfirmed","system":"http://terminology.hl7.org/CodeSystem/allergyintolerance-verification"}]}}}],"id":"377eb7a4-9948-4c9e-a810-fdffabdf6e3b","link":[{"relation":"self","url":"http://base-fhir.test2.forskrivning.no/patient/$getMedication"}],"meta":{"lastUpdated":"2024-01-12T22:56:08.5611869+01:00","profile":["http://ehelse.no/fhir/StructureDefinition/sfm-MedicationBundle"],"source":"http://base-fhir.test2.forskrivning.no/Patient/$getMedication"},"resourceType":"Bundle","timestamp":"2024-01-12T22:56:08.561183+01:00","total":18,"type":"document"}},{"name":"KJHentetTidspunkt","valueDateTime":"2024-01-12T22:56:08.4923913+01:00"},{"name":"RFHentetTidspunkt","valueDateTime":"2024-01-12T22:56:08.298+01:00"},{"name":"KJFeilkode","valueCodeableConcept":{"coding":[{"code":"5","display":"Ingen rettighet til KJ oppslag","system":"http://ehelse.no/fhir/CodeSystem/sfm-kj-rf-error-code"}],"text":"TraceID: 68f574e0dbb0785a41dc755766b2d0b0. Error: The HTTP status code of the response was not expected (400).\n\nStatus: 400\nResponse: \n{\n  \"status\" : 400,\n  \"feilkode\" : \"KJF-000206\",\n  \"utviklermelding\" : \"Ugyldig input\",\n  \"brukermelding\" : \"Teknisk feil. Vennligst prøv igjen. KJF-000206\",\n  \"veljustoeleifend\" : \"Ukjent felt skal støttes av konsument\"\n}"}},{"name":"RFM96Feilkode","valueCodeableConcept":{"coding":[{"code":"0","display":"OK","system":"http://ehelse.no/fhir/CodeSystem/sfm-kj-rf-error-code"}]}},{"name":"RFM912Feilkode","valueCodeableConcept":{"coding":[{"code":"0","display":"OK","system":"http://ehelse.no/fhir/CodeSystem/sfm-kj-rf-error-code"}]}},{"name":"KJHarLegemidler","valueBoolean":false},{"name":"KJHarLaste","valueBoolean":false},{"name":"RFHarLaste","valueBoolean":false}],"resourceType":"Parameters"}