{"parameter":[{"name":"medication","resource":{"entry":[{"fullUrl":"urn:uuid:9bc4d9ec-8bc1-4bbc-a011-c6475e3d3033","resource":{"author":[{"display":"Jesper Odd Hansen, HPR: 7479654","reference":"urn:uuid:a871f0d1-1811-4264-87f1-421453d1dad9","type":"http://ehelse.no/fhir/StructureDefinition/sfm-Practitioner"}],"confidentiality":"N","date":"2024-07-21","id":"9519171b-7c3d-4496-a98d-e2b5fa39b087","identifier":{"use":"official","value":"b88b7b49-0c06-4bcd-8157-727f907fc7ee"},"meta":{"profile":["http://ehelse.no/fhir/StructureDefinition/sfm-MedicationComposition"]},"resourceType":"Composition","section":[{"code":{"coding":[{"code":"sectionMedication","display":"List of Medication statements","system":"http://ehelse.no/fhir/CodeSystem/sfm-section-types"}]},"entry":[{"display":"Pinex tab 500 mg","reference":"urn:uuid:825e98e6-efab-4e27-a6e7-d53c48063739","type":"http://ehelse.no/fhir/StructureDefinition/sfm-MedicationStatement"},{"display":"Ibux tab 600 mg","reference":"urn:uuid:475661b8-353e-45c5-b428-76d0cc5ebfd8","type":"http://ehelse.no/fhir/StructureDefinition/sfm-MedicationStatement"},{"display":"Somac enterotab 40 mg","reference":"urn:uuid:d73472f9-668c-47e2-b4e0-4e2e56f032de","type":"http://ehelse.no/fhir/StructureDefinition/sfm-MedicationStatement"}],"text":{"div":"<xhtml:div xmlns:xhtml=\"http://www.w3.org/1999/xhtml\">List of medications</xhtml:div>","status":"generated"},"title":"Medication"},{"code":{"coding":[{"code":"sectionPLLinfo","display":"PLL Info","system":"http://ehelse.no/fhir/CodeSystem/sfm-section-types"}]},"entry":[{"display":"M25.1","reference":"urn:uuid:cab3b87f-1b71-41e9-9b86-d429e2b781fa","type":"http://ehelse.no/fhir/StructureDefinition/sfm-PLL-info"}],"text":{"div":"<xhtml:div xmlns:xhtml=\"http://www.w3.org/1999/xhtml\">Info read from M25</xhtml:div>","status":"generated"},"title":"PllInfo"},{"code":{"coding":[{"code":"sectionAllergies","display":"Section allergies","system":"http://ehelse.no/fhir/CodeSystem/sfm-section-types"}]},"emptyReason":{"coding":[{"code":"unavailable","display":"Unavailable","system":"http://terminology.hl7.org/CodeSystem/list-empty-reason"}]},"text":{"div":"<xhtml:div xmlns:xhtml=\"http://www.w3.org/1999/xhtml\"></xhtml:div>","status":"generated"},"title":"Allergies"},{"code":{"coding":[{"code":"sectionOtherPrescriptions","display":"List of non medical prescriptions","system":"http://ehelse.no/fhir/CodeSystem/sfm-section-types"}]},"emptyReason":{"coding":[{"code":"unavailable","display":"Unavailable","system":"http://terminology.hl7.org/CodeSystem/list-empty-reason"}]},"text":{"div":"<xhtml:div xmlns:xhtml=\"http://www.w3.org/1999/xhtml\"></xhtml:div>","status":"generated"},"title":"Other Prescriptions"}],"status":"final","subject":{"display":"Jeo 2 TM TEST","reference":"urn:uuid:ad9a68d0-b86f-4bdc-a560-7419f2054943","type":"http://ehelse.no/fhir/StructureDefinition/sfm-Patient"},"title":"Medication summary","type":{"coding":[{"code":"11503-0","display":"Medical records","system":"http://loinc.org"}]}}},{"fullUrl":"urn:uuid:a871f0d1-1811-4264-87f1-421453d1dad9","resource":{"active":true,"birthDate":"1982-04-23","gender":"female","id":"1314919758","identifier":[{"system":"urn:oid:2.16.578.1.12.4.1.4.4","type":{"coding":[{"code":"HPR-nummer","system":"http://hl7.no/fhir/NamingSystem/HPR"}]},"use":"official","value":"7479654"},{"system":"urn:oid:2.16.578.1.12.4.1.4.1","type":{"coding":[{"code":"FNR-nummer","system":"http://hl7.no/fhir/NamingSystem/FNR"}]},"use":"official","value":"23048201385"}],"meta":{"profile":["http://ehelse.no/fhir/StructureDefinition/sfm-Practitioner"]},"name":[{"family":"Hansen","given":["Jesper Odd"],"use":"official"}],"resourceType":"Practitioner"}},{"fullUrl":"urn:uuid:ad9a68d0-b86f-4bdc-a560-7419f2054943","resource":{"active":true,"address":[{"city":"Fauske","postalCode":"8200","type":"physical"}],"birthDate":"1954-05-18","gender":"male","id":"333760447","identifier":[{"system":"urn:oid:2.16.578.1.12.4.1.4.1","type":{"coding":[{"code":"FNR-nummer","system":"http://hl7.no/fhir/NamingSystem/FNR"}]},"use":"official","value":"18055414528"}],"meta":{"profile":["http://ehelse.no/fhir/StructureDefinition/sfm-Patient"]},"name":[{"family":"TEST","given":["Jeo 2 TM"]}],"resourceType":"Patient"}},{"fullUrl":"urn:uuid:c02dd08a-2313-4e0b-92f3-c4613b75fea1","resource":{"amount":{"extension":[{"extension":[{"url":"quantity","valueQuantity":{"unit":"stk","value":20}},{"url":"amounttext","valueString":"20 stk"}],"url":"http://ehelse.no/fhir/StructureDefinition/sfm-amountText"}]},"code":{"coding":[{"code":"526749","display":"Pinex tab 500 mg","system":"http://ehelse.no/fhir/CodeSystem/FEST"},{"code":"N02BE01","display":"Paracetamol","system":"http://www.whocc.no/atc"}]},"extension":[{"extension":[{"url":"prescriptiongroup","valueCodeableConcept":{"coding":[{"code":"F","display":"Reseptgruppe F","system":"urn:oid:2.16.578.1.12.4.1.1.7421"}]}}],"url":"http://hl7.no/fhir/StructureDefinition/no-basis-prescriptiongroup"},{"extension":[{"url":"registreringstype","valueCodeableConcept":{"coding":[{"code":"3","display":"Legemiddelpakning","system":"http://ehelse.no/fhir/CodeSystem/sfm-festregistrationtype"}]}},{"extension":[{"url":"name","valueString":"Pinex"},{"url":"packingsize","valueString":"20"},{"url":"packingunit","valueCodeableConcept":{"coding":[{"code":"stk","display":"stykk","system":"urn:oid:2.16.578.1.12.4.1.1.7452"}]}}],"url":"packinginfoprescription"}],"url":"http://ehelse.no/fhir/StructureDefinition/sfm-medicationdetails"}],"form":{"coding":[{"code":"53","display":"Tablett","system":"urn:oid:2.16.578.1.12.4.1.1.7448"}]},"id":"340848049","identifier":[{"type":{"text":"identifier"},"use":"official","value":"526749"}],"meta":{"profile":["http://ehelse.no/fhir/StructureDefinition/sfm-Medication"]},"resourceType":"Medication","status":"active"}},{"fullUrl":"urn:uuid:825e98e6-efab-4e27-a6e7-d53c48063739","resource":{"dosage":[{"extension":[{"url":"http://ehelse.no/fhir/StructureDefinition/sfm-use","valueCodeableConcept":{"coding":[{"code":"1","display":"Fast","system":"urn:oid:2.16.578.1.12.4.1.1.9101"}]}},{"extension":[{"url":"text","valueString":"MOT ALT"}],"url":"http://ehelse.no/fhir/StructureDefinition/sfm-application-area"}],"sequence":1,"text":"etter avt"}],"extension":[{"extension":[{"url":"reseptdate","valueDate":"2024-06-13"},{"url":"expirationdate","valueDate":"2025-06-12"},{"url":"festUpdate","valueDateTime":"2023-12-20T11:54:48.9287539+00:00"},{"url":"dssn","valueString":"etter avt"},{"url":"numberofpackages","valueDecimal":1},{"url":"reit","valueString":"0"},{"url":"itemgroup","valueCodeableConcept":{"coding":[{"code":"L","display":"Legemiddel","system":"urn:oid:2.16.578.1.12.4.1.1.7402"}]}},{"extension":[{"url":"status","valueCodeableConcept":{"coding":[{"code":"E","display":"Ekspederbar","system":"urn:oid:2.16.578.1.12.4.1.1.7408"}]}}],"url":"rfstatus"},{"url":"lastchanged","valueDateTime":"2024-07-21T00:31:17+02:00"},{"url":"typeresept","valueCodeableConcept":{"coding":[{"code":"E","display":"Eresept","system":"urn:oid:2.16.578.1.12.4.1.1.7491"}]}}],"url":"http://ehelse.no/fhir/StructureDefinition/sfm-reseptamendment"},{"extension":[{"url":"status","valueCodeableConcept":{"coding":[{"code":"3","display":"Godkjent","system":"http://ehelse.no/fhir/CodeSystem/sfm-medicationstatement-registration-status"}]}},{"url":"type","valueCodeableConcept":{"coding":[{"code":"1","display":"Forskrevet av","system":"http://ehelse.no/fhir/CodeSystem/sfm-performer-roles"}]}},{"url":"provider","valueReference":{"display":"Jesper Odd Hansen, HPR: 7479654","reference":"urn:uuid:a871f0d1-1811-4264-87f1-421453d1dad9","type":"http://ehelse.no/fhir/StructureDefinition/sfm-Practitioner"}},{"url":"timestamp","valueDateTime":"2024-06-13T21:33:14.6134241+02:00"}],"url":"http://ehelse.no/fhir/StructureDefinition/sfm-regInfo"},{"extension":[{"url":"genericSubstitutionAccepted","valueBoolean":true}],"url":"http://ehelse.no/fhir/StructureDefinition/sfm-generic-substitution"}],"id":"596357917","identifier":[{"type":{"text":"PLL"},"use":"usual","value":"e2d9b593-19be-44d2-bc58-70ed46cefadd"},{"type":{"text":"ReseptId"},"use":"usual","value":"6c1c6621-1966-4614-b59d-8b2db1cc3deb"}],"medicationReference":{"display":"Pinex tab 500 mg","reference":"urn:uuid:c02dd08a-2313-4e0b-92f3-c4613b75fea1","type":"http://ehelse.no/fhir/StructureDefinition/sfm-Medication"},"meta":{"profile":["http://ehelse.no/fhir/StructureDefinition/sfm-MedicationStatement"]},"resourceType":"MedicationStatement","status":"active","subject":{"display":"Jeo 2 TM TEST","reference":"urn:uuid:ad9a68d0-b86f-4bdc-a560-7419f2054943","type":"http://ehelse.no/fhir/StructureDefinition/sfm-Patient"}}},{"fullUrl":"urn:uuid:837cb8e8-6660-433b-96c3-b83a273e97ba","resource":{"code":{"coding":[{"code":"154062","display":"Ibux tab 600 mg","system":"http://ehelse.no/fhir/CodeSystem/FEST"}]},"extension":[{"extension":[{"url":"prescriptiongroup","valueCodeableConcept":{"coding":[{"code":"C","display":"Reseptgruppe C","system":"urn:oid:2.16.578.1.12.4.1.1.7421"}]}}],"url":"http://hl7.no/fhir/StructureDefinition/no-basis-prescriptiongroup"},{"extension":[{"url":"registreringstype","valueCodeableConcept":{"coding":[{"code":"3","display":"Legemiddelpakning","system":"http://ehelse.no/fhir/CodeSystem/sfm-festregistrationtype"}]}},{"extension":[{"url":"name","valueString":"Ibux"},{"url":"packingsize","valueString":"30"},{"url":"packingunit","valueCodeableConcept":{"coding":[{"code":"stk","display":"stykk","system":"urn:oid:2.16.578.1.12.4.1.1.7452"}]}}],"url":"packinginfoprescription"}],"url":"http://ehelse.no/fhir/StructureDefinition/sfm-medicationdetails"}],"form":{"coding":[{"code":"53","display":"Tablett","system":"urn:oid:2.16.578.1.12.4.1.1.7448"}]},"id":"234534995","identifier":[{"type":{"text":"identifier"},"use":"official","value":"154062"}],"meta":{"profile":["http://ehelse.no/fhir/StructureDefinition/sfm-Medication"]},"resourceType":"Medication","status":"active"}},{"fullUrl":"urn:uuid:475661b8-353e-45c5-b428-76d0cc5ebfd8","resource":{"dosage":[{"extension":[{"url":"http://ehelse.no/fhir/StructureDefinition/sfm-use","valueCodeableConcept":{"coding":[{"code":"1","display":"Fast","system":"urn:oid:2.16.578.1.12.4.1.1.9101"}]}},{"extension":[{"url":"text","valueString":"MOT ALT"}],"url":"http://ehelse.no/fhir/StructureDefinition/sfm-application-area"}],"sequence":1,"text":"etter avt"}],"extension":[{"extension":[{"url":"reseptdate","valueDate":"2024-06-13"},{"url":"expirationdate","valueDate":"2025-06-12"},{"url":"festUpdate","valueDateTime":"2023-12-20T11:54:48.9287539+00:00"},{"url":"dssn","valueString":"etter avt"},{"url":"numberofpackages","valueDecimal":1},{"url":"reit","valueString":"0"},{"url":"itemgroup","valueCodeableConcept":{"coding":[{"code":"L","display":"Legemiddel","system":"urn:oid:2.16.578.1.12.4.1.1.7402"}]}},{"extension":[{"url":"text","valueString":"Årsak: Seponering"},{"url":"recallcode","valueCodeableConcept":{"coding":[{"code":"2","display":"Seponering","system":"urn:oid:2.16.578.1.12.4.1.1.7500"}]}}],"url":"recallinfo"},{"extension":[{"url":"status","valueCodeableConcept":{"coding":[{"code":"T","display":"Tilbakekalt","system":"urn:oid:2.16.578.1.12.4.1.1.7408"}]}}],"url":"rfstatus"},{"url":"lastchanged","valueDateTime":"2024-07-21T00:31:17+02:00"},{"url":"typeresept","valueCodeableConcept":{"coding":[{"code":"E","display":"Eresept","system":"urn:oid:2.16.578.1.12.4.1.1.7491"}]}}],"url":"http://ehelse.no/fhir/StructureDefinition/sfm-reseptamendment"},{"extension":[{"url":"status","valueCodeableConcept":{"coding":[{"code":"3","display":"Godkjent","system":"http://ehelse.no/fhir/CodeSystem/sfm-medicationstatement-registration-status"}]}},{"url":"type","valueCodeableConcept":{"coding":[{"code":"3","display":"Seponert av","system":"http://ehelse.no/fhir/CodeSystem/sfm-performer-roles"}]}},{"url":"provider","valueReference":{"display":"Jesper Odd Hansen, HPR: 7479654","reference":"urn:uuid:a871f0d1-1811-4264-87f1-421453d1dad9","type":"http://ehelse.no/fhir/StructureDefinition/sfm-Practitioner"}},{"url":"timestamp","valueDateTime":"2024-06-13T21:41:13.2800135+02:00"}],"url":"http://ehelse.no/fhir/StructureDefinition/sfm-regInfo"},{"extension":[{"url":"genericSubstitutionAccepted","valueBoolean":true}],"url":"http://ehelse.no/fhir/StructureDefinition/sfm-generic-substitution"},{"extension":[{"url":"note","valueString":"Slett"},{"url":"timedate","valueDateTime":"2024-07-21T00:31:14+02:00"},{"url":"reason","valueCodeableConcept":{"coding":[{"code":"A","display":"Avsluttet behandling","system":"urn:oid:2.16.578.1.12.4.1.1.7494"}]}}],"url":"http://ehelse.no/fhir/StructureDefinition/sfm-discontinuation"}],"id":"133482600","identifier":[{"type":{"text":"PLL"},"use":"usual","value":"82a407a1-24e5-47cf-a603-a029cacf644a"},{"type":{"text":"ReseptId"},"use":"usual","value":"1ca97f32-40e5-46ef-878e-e8288701da3c"}],"medicationReference":{"display":"Ibux tab 600 mg","reference":"urn:uuid:837cb8e8-6660-433b-96c3-b83a273e97ba","type":"http://ehelse.no/fhir/StructureDefinition/sfm-Medication"},"meta":{"profile":["http://ehelse.no/fhir/StructureDefinition/sfm-MedicationStatement"]},"resourceType":"MedicationStatement","status":"stopped","subject":{"display":"Jeo 2 TM TEST","reference":"urn:uuid:ad9a68d0-b86f-4bdc-a560-7419f2054943","type":"http://ehelse.no/fhir/StructureDefinition/sfm-Patient"}}},{"fullUrl":"urn:uuid:8a40b46f-e52a-43eb-a048-f67e74e82149","resource":{"code":{"coding":[{"code":"076857","display":"Somac enterotab 40 mg","system":"http://ehelse.no/fhir/CodeSystem/FEST"}]},"extension":[{"extension":[{"url":"prescriptiongroup","valueCodeableConcept":{"coding":[{"code":"C","display":"Reseptgruppe C","system":"urn:oid:2.16.578.1.12.4.1.1.7421"}]}}],"url":"http://hl7.no/fhir/StructureDefinition/no-basis-prescriptiongroup"},{"extension":[{"url":"registreringstype","valueCodeableConcept":{"coding":[{"code":"3","display":"Legemiddelpakning","system":"http://ehelse.no/fhir/CodeSystem/sfm-festregistrationtype"}]}},{"extension":[{"url":"name","valueString":"Somac"},{"url":"packingsize","valueString":"100 x 1"},{"url":"packingunit","valueCodeableConcept":{"coding":[{"code":"stk","display":"stykk","system":"urn:oid:2.16.578.1.12.4.1.1.7452"}]}}],"url":"packinginfoprescription"}],"url":"http://ehelse.no/fhir/StructureDefinition/sfm-medicationdetails"}],"form":{"coding":[{"code":"28","display":"Enterotablett","system":"urn:oid:2.16.578.1.12.4.1.1.7448"}]},"id":"351830062","identifier":[{"type":{"text":"identifier"},"use":"official","value":"076857"}],"meta":{"profile":["http://ehelse.no/fhir/StructureDefinition/sfm-Medication"]},"resourceType":"Medication","status":"active"}},{"fullUrl":"urn:uuid:d73472f9-668c-47e2-b4e0-4e2e56f032de","resource":{"dosage":[{"extension":[{"url":"http://ehelse.no/fhir/StructureDefinition/sfm-use","valueCodeableConcept":{"coding":[{"code":"1","display":"Fast","system":"urn:oid:2.16.578.1.12.4.1.1.9101"}]}},{"extension":[{"url":"text","valueString":"MOT IBUX"}],"url":"http://ehelse.no/fhir/StructureDefinition/sfm-application-area"}],"sequence":1,"text":"etter avt"}],"extension":[{"extension":[{"url":"reseptdate","valueDate":"2024-06-13"},{"url":"expirationdate","valueDate":"2025-06-12"},{"url":"festUpdate","valueDateTime":"2023-12-20T11:54:48.9287539+00:00"},{"url":"dssn","valueString":"etter avt"},{"url":"numberofpackages","valueDecimal":1},{"url":"reit","valueString":"0"},{"url":"itemgroup","valueCodeableConcept":{"coding":[{"code":"L","display":"Legemiddel","system":"urn:oid:2.16.578.1.12.4.1.1.7402"}]}},{"extension":[{"url":"status","valueCodeableConcept":{"coding":[{"code":"E","display":"Ekspederbar","system":"urn:oid:2.16.578.1.12.4.1.1.7408"}]}}],"url":"rfstatus"},{"url":"lastchanged","valueDateTime":"2024-07-21T00:31:17+02:00"},{"url":"typeresept","valueCodeableConcept":{"coding":[{"code":"E","display":"Eresept","system":"urn:oid:2.16.578.1.12.4.1.1.7491"}]}}],"url":"http://ehelse.no/fhir/StructureDefinition/sfm-reseptamendment"},{"extension":[{"url":"status","valueCodeableConcept":{"coding":[{"code":"3","display":"Godkjent","system":"http://ehelse.no/fhir/CodeSystem/sfm-medicationstatement-registration-status"}]}},{"url":"type","valueCodeableConcept":{"coding":[{"code":"1","display":"Forskrevet av","system":"http://ehelse.no/fhir/CodeSystem/sfm-performer-roles"}]}},{"url":"provider","valueReference":{"display":"Jesper Odd Hansen, HPR: 7479654","reference":"urn:uuid:a871f0d1-1811-4264-87f1-421453d1dad9","type":"http://ehelse.no/fhir/StructureDefinition/sfm-Practitioner"}},{"url":"timestamp","valueDateTime":"2024-06-13T21:51:42.0983084+02:00"}],"url":"http://ehelse.no/fhir/StructureDefinition/sfm-regInfo"},{"extension":[{"url":"genericSubstitutionAccepted","valueBoolean":true}],"url":"http://ehelse.no/fhir/StructureDefinition/sfm-generic-substitution"}],"id":"1623471322","identifier":[{"type":{"text":"PLL"},"use":"usual","value":"14da9cad-c6ed-4c57-9357-48b3fdf49ac2"},{"type":{"text":"ReseptId"},"use":"usual","value":"dc3c1bff-10d8-4996-8dbb-05cc034b2782"}],"medicationReference":{"display":"Somac enterotab 40 mg","reference":"urn:uuid:8a40b46f-e52a-43eb-a048-f67e74e82149","type":"http://ehelse.no/fhir/StructureDefinition/sfm-Medication"},"meta":{"profile":["http://ehelse.no/fhir/StructureDefinition/sfm-MedicationStatement"]},"resourceType":"MedicationStatement","status":"active","subject":{"display":"Jeo 2 TM TEST","reference":"urn:uuid:ad9a68d0-b86f-4bdc-a560-7419f2054943","type":"http://ehelse.no/fhir/StructureDefinition/sfm-Patient"}}},{"fullUrl":"urn:uuid:1753de5f-8fab-4ff4-b40a-1e8e46ab6fdf","resource":{"id":"867443532","identifier":[{"system":"urn:oid:2.16.578.1.12.4.1.2","use":"official","value":"79744"},{"system":"urn:oid:2.16.578.1.12.4.1.4.102","use":"official","value":"10060"}],"meta":{"profile":["http://ehelse.no/fhir/StructureDefinition/sfm-Organization"]},"name":"Dips-SFM Testsykehuset HF","resourceType":"Organization"}},{"fullUrl":"urn:uuid:877a2cc8-8a90-40be-8f02-260ad81f68f2","resource":{"code":[{"coding":[{"system":"urn:oid:2.16.578.1.12.4.1.1.7490"}],"text":"PLL author"}],"id":"147564081","meta":{"profile":["http://ehelse.no/fhir/StructureDefinition/sfm-PractitionerRole"]},"organization":{"display":"Dips-SFM Testsykehuset HF, HER: 79744","identifier":{"system":"urn:oid:2.16.578.1.12.4.1.2","use":"official","value":"79744"},"reference":"urn:uuid:1753de5f-8fab-4ff4-b40a-1e8e46ab6fdf","type":"http://ehelse.no/fhir/StructureDefinition/sfm-Organization"},"practitioner":{"display":"Jesper Odd Hansen, HPR: 7479654","identifier":{"system":"urn:oid:2.16.578.1.12.4.1.4.4","type":{"coding":[{"code":"HPR-nummer","system":"http://hl7.no/fhir/NamingSystem/HPR"}]},"use":"official","value":"7479654"},"reference":"urn:uuid:a871f0d1-1811-4264-87f1-421453d1dad9","type":"http://ehelse.no/fhir/StructureDefinition/sfm-Practitioner"},"resourceType":"PractitionerRole"}},{"fullUrl":"urn:uuid:cab3b87f-1b71-41e9-9b86-d429e2b781fa","resource":{"author":{"display":"Jesper Odd Hansen, HPR: 7479654, Dips-SFM Testsykehuset HF, HER: 79744","reference":"urn:uuid:877a2cc8-8a90-40be-8f02-260ad81f68f2","type":"http://ehelse.no/fhir/StructureDefinition/sfm-PractitionerRole"},"code":{"coding":[{"code":"M25.1","display":"PLL","system":"http://ehelse.no/fhir/CodeSystem/sfm-message-type"}]},"extension":[{"extension":[{"url":"substitute","valueBoolean":false},{"url":"PLLdate","valueDateTime":"2024-07-21T00:31:18.2298438+02:00"}],"url":"http://ehelse.no/fhir/StructureDefinition/sfm-pllInformation"}],"id":"d0a6e1d1-787c-4650-8ba7-8ac61a8baf52","identifier":[{"use":"usual","value":"26edcc99-354d-4a3c-ab2a-250ca95651aa"}],"meta":{"profile":["http://ehelse.no/fhir/StructureDefinition/sfm-PLL-info"]},"resourceType":"Basic","subject":{"display":"Jeo 2 TM TEST","reference":"urn:uuid:ad9a68d0-b86f-4bdc-a560-7419f2054943","type":"http://ehelse.no/fhir/StructureDefinition/sfm-Patient"}}}],"id":"d7718fdc-3605-47a6-803d-3ad4469eaebf","link":[{"relation":"self","url":"http://base-fhir.test5.forskrivning.no/patient/$getMedication"}],"meta":{"lastUpdated":"2024-07-21T00:31:27.251278+02:00","profile":["http://ehelse.no/fhir/StructureDefinition/sfm-MedicationBundle"],"source":"http://base-fhir.test5.forskrivning.no/Patient/$getMedication"},"resourceType":"Bundle","timestamp":"2024-07-21T00:31:27.2512743+02:00","total":12,"type":"document"}},{"name":"KJHentetTidspunkt","valueDateTime":"2024-07-21T00:31:27.2157361+02:00"},{"name":"RFHentetTidspunkt","valueDateTime":"2024-07-21T00:31:27.204+02:00"},{"name":"KJFeilkode","valueCodeableConcept":{"coding":[{"code":"5","display":"Ingen rettighet til KJ oppslag","system":"http://ehelse.no/fhir/CodeSystem/sfm-kj-rf-error-code"}],"text":"Ingen rettighet til KJ oppslag"}},{"name":"RFM96Feilkode","valueCodeableConcept":{"coding":[{"code":"0","display":"OK","system":"http://ehelse.no/fhir/CodeSystem/sfm-kj-rf-error-code"}]}},{"name":"RFM912Feilkode","valueCodeableConcept":{"coding":[{"code":"0","display":"OK","system":"http://ehelse.no/fhir/CodeSystem/sfm-kj-rf-error-code"}]}},{"name":"KJHarLegemidler","valueBoolean":false},{"name":"KJHarLaste","valueBoolean":false},{"name":"RFHarLaste","valueBoolean":false}],"resourceType":"Parameters"}