{"parameter":[{"name":"medication","resource":{"entry":[{"fullUrl":"urn:uuid:da25556d-f93c-4889-a2b4-6f61d4c27d5a","resource":{"author":[{"display":"Jesper Odd Hansen, HPR: 7479654","reference":"urn:uuid:d13c539d-a4de-4093-9805-ceb278bdc308","type":"http://ehelse.no/fhir/StructureDefinition/sfm-Practitioner"},{"display":"HER: 8141719","reference":"urn:uuid:1ee78603-2d08-4991-8796-45cefee77234","type":"http://ehelse.no/fhir/StructureDefinition/sfm-Organization"}],"confidentiality":"N","date":"2024-02-07","id":"be485ea4-7afa-4484-8602-ef73c0f7fad5","identifier":{"use":"official","value":"680f177e-0104-4528-9776-4a175bd81c5f"},"meta":{"profile":["http://ehelse.no/fhir/StructureDefinition/sfm-MedicationComposition"]},"resourceType":"Composition","section":[{"code":{"coding":[{"code":"sectionMedication","display":"List of Medication statements","system":"http://ehelse.no/fhir/CodeSystem/sfm-section-types"}]},"entry":[{"display":"Aerius tab 5 mg","reference":"urn:uuid:d00af355-1fc3-4433-9ac5-876b190862f9","type":"http://ehelse.no/fhir/StructureDefinition/sfm-MedicationStatement"},{"display":"Glucos. B. Braun inf, oppl 200 mg/ml ad, Cetirizin 0,01 mg inj/inf, oppl 750 mg","reference":"urn:uuid:ad507c25-322b-4674-9e30-b97521306e14","type":"http://ehelse.no/fhir/StructureDefinition/sfm-MedicationStatement"},{"display":"Marevan tab 2,5 mg","reference":"urn:uuid:ddf02791-a834-4695-ae9c-0a59844798b4","type":"http://ehelse.no/fhir/StructureDefinition/sfm-MedicationStatement"},{"display":"Vann ad, Sukker 50 mg inf, oppl 500 ml","reference":"urn:uuid:9983d8ff-0f8a-433a-b3f3-32fb78bce300","type":"http://ehelse.no/fhir/StructureDefinition/sfm-MedicationStatement"}],"text":{"div":"<xhtml:div xmlns:xhtml=\"http://www.w3.org/1999/xhtml\">List of medications</xhtml:div>","status":"generated"},"title":"Medication"},{"code":{"coding":[{"code":"sectionPLLinfo","display":"PLL Info","system":"http://ehelse.no/fhir/CodeSystem/sfm-section-types"}]},"entry":[{"display":"M25.1","reference":"urn:uuid:e3427965-d4c5-446e-8777-badca95cb8e9","type":"http://ehelse.no/fhir/StructureDefinition/sfm-PLL-info"}],"text":{"div":"<xhtml:div xmlns:xhtml=\"http://www.w3.org/1999/xhtml\">Info read from M25</xhtml:div>","status":"generated"},"title":"PllInfo"},{"code":{"coding":[{"code":"sectionAllergies","display":"Section allergies","system":"http://ehelse.no/fhir/CodeSystem/sfm-section-types"}]},"entry":[{"display":"KjAllergyIntolerance","reference":"urn:uuid:6e7e6653-215e-442a-80e4-adec6d515d3d","type":"http://nhn.no/kj/fhir/StructureDefinition/KjAllergyIntolerance"},{"display":"KjAllergyIntolerance","reference":"urn:uuid:04332d6b-f7cb-4e39-a024-10b63d0dc918","type":"http://nhn.no/kj/fhir/StructureDefinition/KjAllergyIntolerance"},{"display":"KjAllergyIntolerance","reference":"urn:uuid:b7cc5ccd-2e69-43f6-9525-579593cd3b80","type":"http://nhn.no/kj/fhir/StructureDefinition/KjAllergyIntolerance"}],"text":{"div":"<xhtml:div xmlns:xhtml=\"http://www.w3.org/1999/xhtml\">List of allergies</xhtml:div>","status":"generated"},"title":"Allergies"},{"code":{"coding":[{"code":"sectionOtherPrescriptions","display":"List of non medical prescriptions","system":"http://ehelse.no/fhir/CodeSystem/sfm-section-types"}]},"entry":[{"display":"sfm-BandaPrescription","reference":"urn:uuid:9b38fc1f-06da-49d4-9c17-057b1d717306","type":"http://ehelse.no/fhir/StructureDefinition/sfm-BandaPrescription"}],"text":{"div":"<xhtml:div xmlns:xhtml=\"http://www.w3.org/1999/xhtml\">List of non medical prescriptions</xhtml:div>","status":"generated"},"title":"Other Prescriptions"}],"status":"final","subject":{"display":"Jeo 48 Test","reference":"urn:uuid:b509ff80-6fff-4164-834b-393c124220de","type":"http://ehelse.no/fhir/StructureDefinition/sfm-Patient"},"title":"Medication summary","type":{"coding":[{"code":"11503-0","display":"Medical records","system":"http://loinc.org"}]}}},{"fullUrl":"urn:uuid:d13c539d-a4de-4093-9805-ceb278bdc308","resource":{"active":true,"birthDate":"1982-04-23","gender":"female","id":"991955256","identifier":[{"system":"urn:oid:2.16.578.1.12.4.1.4.4","type":{"coding":[{"code":"HPR-nummer","system":"http://hl7.no/fhir/NamingSystem/HPR"}]},"use":"official","value":"7479654"},{"system":"urn:oid:2.16.578.1.12.4.1.4.1","type":{"coding":[{"code":"FNR-nummer","system":"http://hl7.no/fhir/NamingSystem/FNR"}]},"use":"official","value":"23048201385"}],"meta":{"profile":["http://ehelse.no/fhir/StructureDefinition/sfm-Practitioner"]},"name":[{"family":"Hansen","given":["Jesper Odd"],"use":"official"}],"resourceType":"Practitioner"}},{"fullUrl":"urn:uuid:1ee78603-2d08-4991-8796-45cefee77234","resource":{"id":"1123344536","identifier":[{"system":"urn:oid:2.16.578.1.12.4.1.2","use":"official","value":"8141719"}],"meta":{"profile":["http://ehelse.no/fhir/StructureDefinition/sfm-Organization"]},"name":"DIPS-SFM Testsykehuset HF 2","resourceType":"Organization"}},{"fullUrl":"urn:uuid:b509ff80-6fff-4164-834b-393c124220de","resource":{"active":true,"address":[{"city":"FAUSKE","postalCode":"8200","type":"postal"}],"birthDate":"2001-12-06","gender":"male","id":"1388108324","identifier":[{"system":"urn:oid:2.16.578.1.12.4.1.4.1","type":{"coding":[{"code":"FNR-nummer","system":"http://hl7.no/fhir/NamingSystem/FNR"}]},"use":"official","value":"06120182763"}],"meta":{"profile":["http://ehelse.no/fhir/StructureDefinition/sfm-Patient"]},"name":[{"family":"Test","given":["Jeo 48"]}],"resourceType":"Patient"}},{"fullUrl":"urn:uuid:286f24d9-28d2-44fc-ae25-a986d5180e80","resource":{"amount":{"extension":[{"extension":[{"url":"quantity","valueQuantity":{"unit":"stk","value":100}},{"url":"amounttext","valueString":"100 stk"}],"url":"http://ehelse.no/fhir/StructureDefinition/sfm-amountText"}]},"code":{"coding":[{"code":"472759","display":"Aerius tab 5 mg","system":"http://ehelse.no/fhir/CodeSystem/FEST"},{"code":"R06AX27","display":"Desloratadin","system":"http://www.whocc.no/atc"}]},"extension":[{"extension":[{"url":"prescriptiongroup","valueCodeableConcept":{"coding":[{"code":"C","display":"Reseptgruppe C","system":"urn:oid:2.16.578.1.12.4.1.1.7421"}]}}],"url":"http://hl7.no/fhir/StructureDefinition/no-basis-prescriptiongroup"},{"extension":[{"url":"registreringstype","valueCodeableConcept":{"coding":[{"code":"3","display":"Legemiddelpakning","system":"http://ehelse.no/fhir/CodeSystem/sfm-festregistrationtype"}]}},{"extension":[{"url":"name","valueString":"Aerius"},{"url":"packingsize","valueString":"100"},{"url":"packingunit","valueCodeableConcept":{"coding":[{"code":"stk","display":"stykk","system":"urn:oid:2.16.578.1.12.4.1.1.7452"}]}}],"url":"packinginfoprescription"}],"url":"http://ehelse.no/fhir/StructureDefinition/sfm-medicationdetails"}],"form":{"coding":[{"code":"53","display":"Tablett","system":"urn:oid:2.16.578.1.12.4.1.1.7448"}]},"id":"1837228860","identifier":[{"type":{"text":"identifier"},"use":"official","value":"472759"}],"meta":{"profile":["http://ehelse.no/fhir/StructureDefinition/sfm-Medication"]},"resourceType":"Medication","status":"active"}},{"fullUrl":"urn:uuid:d00af355-1fc3-4433-9ac5-876b190862f9","resource":{"basedOn":[{"display":"Aerius tab 5 mg","reference":"urn:uuid:63e7ef77-aa1d-415d-abef-fa3de80426ad","type":"http://ehelse.no/fhir/StructureDefinition/sfm-MedicationStatement"}],"dosage":[{"extension":[{"url":"http://ehelse.no/fhir/StructureDefinition/sfm-shortdosage","valueCodeableConcept":{"coding":[{"code":"5507","display":"1+0+0+0","system":"urn:oid:2.16.578.1.12.4.1.1.7478"}]}},{"url":"http://ehelse.no/fhir/StructureDefinition/sfm-use","valueCodeableConcept":{"coding":[{"code":"1","display":"Fast","system":"urn:oid:2.16.578.1.12.4.1.1.9101"}]}},{"extension":[{"url":"text","valueString":"MOT ALLERGI"}],"url":"http://ehelse.no/fhir/StructureDefinition/sfm-application-area"}],"sequence":1,"text":"1 tablett morgen"}],"extension":[{"extension":[{"url":"reseptdate","valueDate":"2024-01-16"},{"url":"expirationdate","valueDate":"2025-01-15"},{"url":"festUpdate","valueDateTime":"2024-01-16T20:44:21.917593+00:00"},{"url":"guardiantransparencyreservation","valueBoolean":false},{"url":"indoctorsname","valueBoolean":false},{"url":"dssn","valueString":"1 tablett morgen"},{"url":"lockedresept","valueBoolean":false},{"url":"numberofpackages","valueDecimal":1},{"url":"reit","valueString":"0"},{"url":"itemgroup","valueCodeableConcept":{"coding":[{"code":"L","display":"Legemiddel","system":"urn:oid:2.16.578.1.12.4.1.1.7402"}]}},{"url":"reimbursementcode","valueCodeableConcept":{"coding":[{"code":"J30","display":"Vasomotorisk og allergisk rinitt","system":"urn:oid:2.16.578.1.12.4.1.1.7435"}]}},{"url":"reimbursementparagraph","valueCodeableConcept":{"coding":[{"code":"200","display":"§5-14 §2","system":"urn:oid:2.16.578.1.12.4.1.1.7427"}]}},{"extension":[{"url":"starttime","valueDate":"2024-01-16"},{"extension":[{"url":"amount","valueQuantity":{"unit":"tablett","value":1}},{"url":"interval","valueQuantity":{"unit":"Døgn","value":1}},{"url":"accurate","valueBoolean":false},{"url":"timerange","valueCodeableConcept":{"coding":[{"code":"1","display":"Morgen","system":"urn:oid:2.16.578.1.12.4.1.1.8325"}]}}],"url":"repeatingdosage"}],"url":"ereseptdosing"},{"extension":[{"url":"status","valueCodeableConcept":{"coding":[{"code":"E","display":"Ekspederbar","system":"urn:oid:2.16.578.1.12.4.1.1.7408"}]}}],"url":"rfstatus"},{"url":"typeresept","valueCodeableConcept":{"coding":[{"code":"E","display":"Eresept","system":"urn:oid:2.16.578.1.12.4.1.1.7491"}]}}],"url":"http://ehelse.no/fhir/StructureDefinition/sfm-reseptamendment"},{"extension":[{"url":"status","valueCodeableConcept":{"coding":[{"code":"3","display":"Godkjent","system":"http://ehelse.no/fhir/CodeSystem/sfm-medicationstatement-registration-status"}]}},{"url":"type","valueCodeableConcept":{"coding":[{"code":"1","display":"Forskrevet av","system":"http://ehelse.no/fhir/CodeSystem/sfm-performer-roles"}]}},{"url":"provider","valueReference":{"display":"Jesper Odd Hansen, HPR: 7479654","reference":"urn:uuid:d13c539d-a4de-4093-9805-ceb278bdc308","type":"http://ehelse.no/fhir/StructureDefinition/sfm-Practitioner"}},{"url":"timestamp","valueDateTime":"2024-01-16T20:44:23.1786242+01:00"}],"url":"http://ehelse.no/fhir/StructureDefinition/sfm-regInfo"},{"extension":[{"url":"genericSubstitutionAccepted","valueBoolean":true}],"url":"http://ehelse.no/fhir/StructureDefinition/sfm-generic-substitution"}],"id":"364983535","identifier":[{"type":{"text":"ReseptId"},"use":"usual","value":"ff4324e0-5742-4af0-b396-55ab72e50245"}],"medicationReference":{"display":"Aerius tab 5 mg","reference":"urn:uuid:286f24d9-28d2-44fc-ae25-a986d5180e80","type":"http://ehelse.no/fhir/StructureDefinition/sfm-Medication"},"meta":{"profile":["http://ehelse.no/fhir/StructureDefinition/sfm-MedicationStatement"]},"resourceType":"MedicationStatement","status":"active","subject":{"display":"Jeo 48 Test","reference":"urn:uuid:b509ff80-6fff-4164-834b-393c124220de","type":"http://ehelse.no/fhir/StructureDefinition/sfm-Patient"}}},{"fullUrl":"urn:uuid:63e7ef77-aa1d-415d-abef-fa3de80426ad","resource":{"dosage":[{"extension":[{"url":"http://ehelse.no/fhir/StructureDefinition/sfm-shortdosage","valueCodeableConcept":{"coding":[{"code":"5507","display":"1+0+0+0","system":"urn:oid:2.16.578.1.12.4.1.1.7478"}]}},{"url":"http://ehelse.no/fhir/StructureDefinition/sfm-use","valueCodeableConcept":{"coding":[{"code":"1","display":"Fast","system":"urn:oid:2.16.578.1.12.4.1.1.9101"}]}},{"extension":[{"url":"text","valueString":"MOT ALLERGI"}],"url":"http://ehelse.no/fhir/StructureDefinition/sfm-application-area"}],"sequence":1,"text":"1 tablett morgen"}],"extension":[{"extension":[{"url":"reseptdate","valueDate":"2023-12-20"},{"url":"expirationdate","valueDate":"2024-12-18"},{"url":"festUpdate","valueDateTime":"2023-12-20T11:54:48.9287539+00:00"},{"url":"guardiantransparencyreservation","valueBoolean":false},{"url":"indoctorsname","valueBoolean":false},{"url":"dssn","valueString":"1 tablett morgen"},{"url":"lockedresept","valueBoolean":false},{"url":"numberofpackages","valueDecimal":1},{"url":"reit","valueString":"0"},{"url":"itemgroup","valueCodeableConcept":{"coding":[{"code":"L","display":"Legemiddel","system":"urn:oid:2.16.578.1.12.4.1.1.7402"}]}},{"url":"reimbursementcode","valueCodeableConcept":{"coding":[{"code":"J30","display":"Vasomotorisk og allergisk rinitt","system":"urn:oid:2.16.578.1.12.4.1.1.7435"}]}},{"url":"reimbursementparagraph","valueCodeableConcept":{"coding":[{"code":"200","display":"§5-14 §2","system":"urn:oid:2.16.578.1.12.4.1.1.7427"}]}},{"extension":[{"url":"starttime","valueDate":"2023-12-20"},{"extension":[{"url":"amount","valueQuantity":{"unit":"tablett","value":1}},{"url":"interval","valueQuantity":{"unit":"Døgn","value":1}},{"url":"accurate","valueBoolean":false},{"url":"timerange","valueCodeableConcept":{"coding":[{"code":"1","display":"Morgen","system":"urn:oid:2.16.578.1.12.4.1.1.8325"}]}}],"url":"repeatingdosage"}],"url":"ereseptdosing"},{"extension":[{"url":"recallId","valueString":"ff4324e0-5742-4af0-b396-55ab72e50245"},{"url":"text","valueString":"Årsak: Fornying med endring\r\nMerknad: Forny med endring"},{"url":"recallcode","valueCodeableConcept":{"coding":[{"code":"3","display":"Fornying med endring","system":"urn:oid:2.16.578.1.12.4.1.1.7500"}]}}],"url":"recallinfo"},{"extension":[{"url":"status","valueCodeableConcept":{"coding":[{"code":"T","display":"Tilbakekalt","system":"urn:oid:2.16.578.1.12.4.1.1.7408"}]}}],"url":"rfstatus"},{"url":"lastchanged","valueDateTime":"2024-01-12T12:13:58.927493+01:00"},{"url":"typeresept","valueCodeableConcept":{"coding":[{"code":"E","display":"Eresept","system":"urn:oid:2.16.578.1.12.4.1.1.7491"}]}}],"url":"http://ehelse.no/fhir/StructureDefinition/sfm-reseptamendment"},{"extension":[{"url":"status","valueCodeableConcept":{"coding":[{"code":"3","display":"Godkjent","system":"http://ehelse.no/fhir/CodeSystem/sfm-medicationstatement-registration-status"}]}},{"url":"type","valueCodeableConcept":{"coding":[{"code":"1","display":"Forskrevet av","system":"http://ehelse.no/fhir/CodeSystem/sfm-performer-roles"}]}},{"url":"provider","valueReference":{"display":"Jesper Odd Hansen, HPR: 7479654","reference":"urn:uuid:d13c539d-a4de-4093-9805-ceb278bdc308","type":"http://ehelse.no/fhir/StructureDefinition/sfm-Practitioner"}},{"url":"timestamp","valueDateTime":"2023-12-20T11:54:49.9432968+01:00"}],"url":"http://ehelse.no/fhir/StructureDefinition/sfm-regInfo"},{"extension":[{"url":"genericSubstitutionAccepted","valueBoolean":true}],"url":"http://ehelse.no/fhir/StructureDefinition/sfm-generic-substitution"}],"id":"2023334059","identifier":[{"type":{"text":"PLL"},"use":"usual","value":"125719a6-4584-4995-89a6-0077f1786f1d"},{"type":{"text":"ReseptId"},"use":"usual","value":"6de656d0-b274-4b90-aeeb-a308759d01ec"}],"medicationReference":{"display":"Aerius tab 5 mg","reference":"urn:uuid:286f24d9-28d2-44fc-ae25-a986d5180e80","type":"http://ehelse.no/fhir/StructureDefinition/sfm-Medication"},"meta":{"profile":["http://ehelse.no/fhir/StructureDefinition/sfm-MedicationStatement"]},"partOf":[{"display":"Aerius tab 5 mg","reference":"urn:uuid:d00af355-1fc3-4433-9ac5-876b190862f9","type":"http://ehelse.no/fhir/StructureDefinition/sfm-MedicationStatement"}],"resourceType":"MedicationStatement","status":"completed","subject":{"display":"Jeo 48 Test","reference":"urn:uuid:b509ff80-6fff-4164-834b-393c124220de","type":"http://ehelse.no/fhir/StructureDefinition/sfm-Patient"}}},{"fullUrl":"urn:uuid:36772df5-e9c6-462b-8a48-9822a41d8b75","resource":{"code":{"coding":[{"code":"ID_B244BA72-8177-430E-94DB-F98063EB3D36","display":"Glucos. B. Braun inf, oppl 200 mg/ml","system":"http://ehelse.no/fhir/CodeSystem/FEST"},{"code":"B05BA03","display":"Karbohydrater","system":"http://www.whocc.no/atc"}]},"extension":[{"extension":[{"url":"prescriptiongroup","valueCodeableConcept":{"coding":[{"code":"C","display":"Reseptgruppe C","system":"urn:oid:2.16.578.1.12.4.1.1.7421"}]}}],"url":"http://hl7.no/fhir/StructureDefinition/no-basis-prescriptiongroup"},{"extension":[{"url":"registreringstype","valueCodeableConcept":{"coding":[{"code":"2","display":"Legemiddelmerkevare","system":"http://ehelse.no/fhir/CodeSystem/sfm-festregistrationtype"}]}},{"url":"name","valueString":"Glucos. B. Braun"}],"url":"http://ehelse.no/fhir/StructureDefinition/sfm-medicationdetails"}],"form":{"coding":[{"code":"858","display":"Infusjonsvæske, oppløsning","system":"urn:oid:2.16.578.1.12.4.1.1.7448"}]},"id":"573847538","identifier":[{"type":{"text":"identifier"},"use":"official","value":"ID_B244BA72-8177-430E-94DB-F98063EB3D36"}],"meta":{"profile":["http://hl7.org/fhir/StructureDefinition/Medication"]},"resourceType":"Medication","status":"active"}},{"fullUrl":"urn:uuid:74933d63-a1eb-481b-a7d7-d131c83c2239","resource":{"code":{"coding":[{"code":"ID_9132CC79-2D51-4E6E-91CD-DA9F1D62C125","display":"Cetirizin","system":"http://ehelse.no/fhir/CodeSystem/FEST"}]},"id":"38413865","identifier":[{"type":{"text":"identifier"},"use":"official","value":"ID_9132CC79-2D51-4E6E-91CD-DA9F1D62C125"}],"meta":{"profile":["http://ehelse.no/fhir/StructureDefinition/sfm-Substance"]},"resourceType":"Substance","status":"active"}},{"fullUrl":"urn:uuid:a30a51b1-70b2-4cfb-8ca4-46c0db129c09","resource":{"amount":{"numerator":{"unit":"mg","value":750}},"code":{"coding":[{"code":"10","display":"Magistrell","system":"urn:oid:2.16.578.1.12.4.1.1.7424"}]},"extension":[{"url":"http://hl7.no/fhir/StructureDefinition/no-basis-prescriptiongroup","valueCodeableConcept":{"coding":[{"code":"C","display":"Reseptgruppe C","system":"urn:oid:2.16.578.1.12.4.1.1.7421"}]}},{"url":"http://ehelse.no/fhir/StructureDefinition/sfm-name","valueString":"Glucos. B. Braun inf, oppl 200 mg/ml ad, Cetirizin 0,01 mg inj/inf, oppl 750 mg"},{"url":"http://ehelse.no/fhir/StructureDefinition/sfm-recipe","valueString":"prcip"}],"form":{"coding":[{"code":"880","display":"inj/inf, oppl","system":"urn:oid:2.16.578.1.12.4.1.1.7448"}]},"id":"19412510","ingredient":[{"extension":[{"extension":[{"url":"ad","valueBoolean":true}],"url":"http://ehelse.no/fhir/StructureDefinition/sfm-adqs"}],"isActive":false,"itemReference":{"display":"Glucos. B. Braun inf, oppl 200 mg/ml","reference":"urn:uuid:36772df5-e9c6-462b-8a48-9822a41d8b75","type":"http://ehelse.no/fhir/StructureDefinition/sfm-Medication"}},{"isActive":true,"itemReference":{"display":"Cetirizin","reference":"urn:uuid:74933d63-a1eb-481b-a7d7-d131c83c2239","type":"http://ehelse.no/fhir/StructureDefinition/sfm-Substance"},"strength":{"numerator":{"unit":"mg","value":0.01}}}],"meta":{"profile":["http://ehelse.no/fhir/StructureDefinition/sfm-Magistrell-Medication"]},"resourceType":"Medication","status":"active"}},{"fullUrl":"urn:uuid:ad507c25-322b-4674-9e30-b97521306e14","resource":{"dosage":[{"extension":[{"url":"http://ehelse.no/fhir/StructureDefinition/sfm-use","valueCodeableConcept":{"coding":[{"code":"1","display":"Fast","system":"urn:oid:2.16.578.1.12.4.1.1.9101"}]}},{"extension":[{"url":"text","valueString":"1"}],"url":"http://ehelse.no/fhir/StructureDefinition/sfm-application-area"}],"sequence":1,"text":"1"}],"extension":[{"extension":[{"url":"reseptdate","valueDate":"2023-12-06"},{"url":"expirationdate","valueDate":"2024-12-05"},{"url":"festUpdate","valueDateTime":"2023-11-24T11:58:58+00:00"},{"url":"dssn","valueString":"1"},{"url":"numberofpackages","valueDecimal":2},{"url":"reit","valueString":"0"},{"url":"itemgroup","valueCodeableConcept":{"coding":[{"code":"L","display":"Legemiddel","system":"urn:oid:2.16.578.1.12.4.1.1.7402"}]}},{"extension":[{"url":"status","valueCodeableConcept":{"coding":[{"code":"E","display":"Ekspederbar","system":"urn:oid:2.16.578.1.12.4.1.1.7408"}]}}],"url":"rfstatus"},{"url":"lastchanged","valueDateTime":"2024-01-12T12:13:58.927493+01:00"},{"url":"typeresept","valueCodeableConcept":{"coding":[{"code":"E","display":"Eresept","system":"urn:oid:2.16.578.1.12.4.1.1.7491"}]}}],"url":"http://ehelse.no/fhir/StructureDefinition/sfm-reseptamendment"},{"extension":[{"url":"status","valueCodeableConcept":{"coding":[{"code":"3","display":"Godkjent","system":"http://ehelse.no/fhir/CodeSystem/sfm-medicationstatement-registration-status"}]}},{"url":"type","valueCodeableConcept":{"coding":[{"code":"1","display":"Forskrevet av","system":"http://ehelse.no/fhir/CodeSystem/sfm-performer-roles"}]}},{"url":"provider","valueReference":{"display":"Jesper Odd Hansen, HPR: 7479654","reference":"urn:uuid:d13c539d-a4de-4093-9805-ceb278bdc308","type":"http://ehelse.no/fhir/StructureDefinition/sfm-Practitioner"}},{"url":"timestamp","valueDateTime":"2023-12-06T13:36:36.658+01:00"}],"url":"http://ehelse.no/fhir/StructureDefinition/sfm-regInfo"},{"extension":[{"url":"genericSubstitutionAccepted","valueBoolean":true}],"url":"http://ehelse.no/fhir/StructureDefinition/sfm-generic-substitution"}],"id":"807029217","identifier":[{"type":{"text":"PLL"},"use":"usual","value":"50df3c64-c029-4984-a3dd-1e6286213677"},{"type":{"text":"ReseptId"},"use":"usual","value":"7fd3e0c6-1c19-4e0b-b60d-dd006d1ce5d0"}],"medicationReference":{"display":"Glucos. B. Braun inf, oppl 200 mg/ml ad, Cetirizin 0,01 mg inj/inf, oppl 750 mg","reference":"urn:uuid:a30a51b1-70b2-4cfb-8ca4-46c0db129c09","type":"http://ehelse.no/fhir/StructureDefinition/sfm-Magistrell-Medication"},"meta":{"profile":["http://ehelse.no/fhir/StructureDefinition/sfm-MedicationStatement"]},"resourceType":"MedicationStatement","status":"active","subject":{"display":"Jeo 48 Test","reference":"urn:uuid:b509ff80-6fff-4164-834b-393c124220de","type":"http://ehelse.no/fhir/StructureDefinition/sfm-Patient"}}},{"fullUrl":"urn:uuid:2cbe59d6-8622-4072-bbcc-d47042f186a6","resource":{"amount":{"extension":[{"extension":[{"url":"quantity","valueQuantity":{"unit":"stk","value":100}},{"url":"amounttext","valueString":"100 stk"}],"url":"http://ehelse.no/fhir/StructureDefinition/sfm-amountText"}]},"code":{"coding":[{"code":"174532","display":"Marevan tab 2,5 mg","system":"http://ehelse.no/fhir/CodeSystem/FEST"},{"code":"B01AA03","display":"Warfarin","system":"http://www.whocc.no/atc"}]},"extension":[{"extension":[{"url":"prescriptiongroup","valueCodeableConcept":{"coding":[{"code":"C","display":"Reseptgruppe C","system":"urn:oid:2.16.578.1.12.4.1.1.7421"}]}}],"url":"http://hl7.no/fhir/StructureDefinition/no-basis-prescriptiongroup"},{"extension":[{"url":"registreringstype","valueCodeableConcept":{"coding":[{"code":"3","display":"Legemiddelpakning","system":"http://ehelse.no/fhir/CodeSystem/sfm-festregistrationtype"}]}},{"extension":[{"url":"name","valueString":"Marevan"},{"url":"packingsize","valueString":"100"},{"url":"packingunit","valueCodeableConcept":{"coding":[{"code":"stk","display":"stykk","system":"urn:oid:2.16.578.1.12.4.1.1.7452"}]}}],"url":"packinginfoprescription"}],"url":"http://ehelse.no/fhir/StructureDefinition/sfm-medicationdetails"}],"form":{"coding":[{"code":"53","display":"Tablett","system":"urn:oid:2.16.578.1.12.4.1.1.7448"}]},"id":"635211619","identifier":[{"type":{"text":"identifier"},"use":"official","value":"174532"}],"meta":{"profile":["http://ehelse.no/fhir/StructureDefinition/sfm-Medication"]},"resourceType":"Medication","status":"active"}},{"fullUrl":"urn:uuid:ddf02791-a834-4695-ae9c-0a59844798b4","resource":{"dosage":[{"extension":[{"url":"http://ehelse.no/fhir/StructureDefinition/sfm-shortdosage","valueCodeableConcept":{"coding":[{"code":"5507","display":"1+0+0+0","system":"urn:oid:2.16.578.1.12.4.1.1.7478"}]}},{"url":"http://ehelse.no/fhir/StructureDefinition/sfm-use","valueCodeableConcept":{"coding":[{"code":"1","display":"Fast","system":"urn:oid:2.16.578.1.12.4.1.1.9101"}]}},{"extension":[{"url":"text","valueString":"BLODFORTYNNENDE"}],"url":"http://ehelse.no/fhir/StructureDefinition/sfm-application-area"}],"sequence":1,"text":"1 tablett morgen"}],"extension":[{"extension":[{"url":"reseptdate","valueDate":"2024-01-17"},{"url":"expirationdate","valueDate":"2025-01-16"},{"url":"festUpdate","valueDateTime":"2024-01-17T08:57:35.5850223+00:00"},{"url":"guardiantransparencyreservation","valueBoolean":false},{"url":"indoctorsname","valueBoolean":false},{"url":"dssn","valueString":"1 tablett morgen"},{"url":"lockedresept","valueBoolean":false},{"url":"numberofpackages","valueDecimal":1},{"url":"reit","valueString":"0"},{"url":"itemgroup","valueCodeableConcept":{"coding":[{"code":"L","display":"Legemiddel","system":"urn:oid:2.16.578.1.12.4.1.1.7402"}]}},{"extension":[{"url":"starttime","valueDate":"2024-01-17"},{"extension":[{"url":"amount","valueQuantity":{"unit":"tablett","value":1}},{"url":"interval","valueQuantity":{"unit":"Døgn","value":1}},{"url":"accurate","valueBoolean":false},{"url":"timerange","valueCodeableConcept":{"coding":[{"code":"1","display":"Morgen","system":"urn:oid:2.16.578.1.12.4.1.1.8325"}]}}],"url":"repeatingdosage"}],"url":"ereseptdosing"},{"extension":[{"url":"status","valueCodeableConcept":{"coding":[{"code":"E","display":"Ekspederbar","system":"urn:oid:2.16.578.1.12.4.1.1.7408"}]}}],"url":"rfstatus"},{"url":"typeresept","valueCodeableConcept":{"coding":[{"code":"E","display":"Eresept","system":"urn:oid:2.16.578.1.12.4.1.1.7491"}]}}],"url":"http://ehelse.no/fhir/StructureDefinition/sfm-reseptamendment"},{"extension":[{"url":"status","valueCodeableConcept":{"coding":[{"code":"3","display":"Godkjent","system":"http://ehelse.no/fhir/CodeSystem/sfm-medicationstatement-registration-status"}]}},{"url":"type","valueCodeableConcept":{"coding":[{"code":"1","display":"Forskrevet av","system":"http://ehelse.no/fhir/CodeSystem/sfm-performer-roles"}]}},{"url":"provider","valueReference":{"display":"Jesper Odd Hansen, HPR: 7479654","reference":"urn:uuid:d13c539d-a4de-4093-9805-ceb278bdc308","type":"http://ehelse.no/fhir/StructureDefinition/sfm-Practitioner"}},{"url":"timestamp","valueDateTime":"2024-01-17T08:57:37.5397177+01:00"}],"url":"http://ehelse.no/fhir/StructureDefinition/sfm-regInfo"},{"extension":[{"url":"genericSubstitutionAccepted","valueBoolean":true}],"url":"http://ehelse.no/fhir/StructureDefinition/sfm-generic-substitution"}],"id":"657747118","identifier":[{"type":{"text":"ReseptId"},"use":"usual","value":"74ab5ab1-0733-4d29-b82e-33a649847081"}],"medicationReference":{"display":"Marevan tab 2,5 mg","reference":"urn:uuid:2cbe59d6-8622-4072-bbcc-d47042f186a6","type":"http://ehelse.no/fhir/StructureDefinition/sfm-Medication"},"meta":{"profile":["http://ehelse.no/fhir/StructureDefinition/sfm-MedicationStatement"]},"resourceType":"MedicationStatement","status":"active","subject":{"display":"Jeo 48 Test","reference":"urn:uuid:b509ff80-6fff-4164-834b-393c124220de","type":"http://ehelse.no/fhir/StructureDefinition/sfm-Patient"}}},{"fullUrl":"urn:uuid:49a31851-9355-4ba3-933e-0caa86d3f08e","resource":{"amount":{"numerator":{"unit":"ml","value":500}},"code":{"coding":[{"code":"10","display":"Magistrell","system":"urn:oid:2.16.578.1.12.4.1.1.7424"}]},"extension":[{"url":"http://ehelse.no/fhir/StructureDefinition/sfm-name","valueString":"Vann ad, Sukker 50 mg inf, oppl 500 ml"},{"url":"http://ehelse.no/fhir/StructureDefinition/sfm-recipe","valueString":"precip"}],"form":{"coding":[{"code":"858","display":"inf, oppl","system":"urn:oid:2.16.578.1.12.4.1.1.7448"}]},"id":"6782868","meta":{"profile":["http://ehelse.no/fhir/StructureDefinition/sfm-Magistrell-Medication"]},"resourceType":"Medication","status":"active"}},{"fullUrl":"urn:uuid:9983d8ff-0f8a-433a-b3f3-32fb78bce300","resource":{"dosage":[{"extension":[{"url":"http://ehelse.no/fhir/StructureDefinition/sfm-use","valueCodeableConcept":{"coding":[{"code":"1","display":"Fast","system":"urn:oid:2.16.578.1.12.4.1.1.9101"}]}},{"extension":[{"url":"text","valueString":"T"}],"url":"http://ehelse.no/fhir/StructureDefinition/sfm-application-area"}],"sequence":1,"text":"1"}],"extension":[{"extension":[{"url":"reseptdate","valueDate":"2024-01-15"},{"url":"expirationdate","valueDate":"2025-01-14"},{"url":"festUpdate","valueDateTime":"2024-01-15T21:44:15.556182+00:00"},{"url":"guardiantransparencyreservation","valueBoolean":false},{"url":"indoctorsname","valueBoolean":false},{"url":"dssn","valueString":"1"},{"url":"lockedresept","valueBoolean":false},{"url":"amount","valueQuantity":{"unit":"milliliter","value":500}},{"url":"numberofpackages","valueDecimal":1},{"url":"reit","valueString":"0"},{"url":"itemgroup","valueCodeableConcept":{"coding":[{"code":"L","display":"Legemiddel","system":"urn:oid:2.16.578.1.12.4.1.1.7402"}]}},{"extension":[{"url":"status","valueCodeableConcept":{"coding":[{"code":"E","display":"Ekspederbar","system":"urn:oid:2.16.578.1.12.4.1.1.7408"}]}}],"url":"rfstatus"},{"url":"typeresept","valueCodeableConcept":{"coding":[{"code":"E","display":"Eresept","system":"urn:oid:2.16.578.1.12.4.1.1.7491"}]}}],"url":"http://ehelse.no/fhir/StructureDefinition/sfm-reseptamendment"},{"extension":[{"url":"status","valueCodeableConcept":{"coding":[{"code":"3","display":"Godkjent","system":"http://ehelse.no/fhir/CodeSystem/sfm-medicationstatement-registration-status"}]}},{"url":"type","valueCodeableConcept":{"coding":[{"code":"1","display":"Forskrevet av","system":"http://ehelse.no/fhir/CodeSystem/sfm-performer-roles"}]}},{"url":"provider","valueReference":{"display":"Jesper Odd Hansen, HPR: 7479654","reference":"urn:uuid:d13c539d-a4de-4093-9805-ceb278bdc308","type":"http://ehelse.no/fhir/StructureDefinition/sfm-Practitioner"}},{"url":"timestamp","valueDateTime":"2024-01-15T21:44:17.3594506+01:00"}],"url":"http://ehelse.no/fhir/StructureDefinition/sfm-regInfo"},{"extension":[{"url":"genericSubstitutionAccepted","valueBoolean":true}],"url":"http://ehelse.no/fhir/StructureDefinition/sfm-generic-substitution"}],"id":"489739820","identifier":[{"type":{"text":"ReseptId"},"use":"usual","value":"db513c4c-4dd2-4f14-9493-e15d6a3d8775"}],"medicationReference":{"display":"Vann ad, Sukker 50 mg inf, oppl 500 ml","reference":"urn:uuid:49a31851-9355-4ba3-933e-0caa86d3f08e","type":"http://ehelse.no/fhir/StructureDefinition/sfm-Magistrell-Medication"},"meta":{"profile":["http://ehelse.no/fhir/StructureDefinition/sfm-MedicationStatement"]},"resourceType":"MedicationStatement","status":"active","subject":{"display":"Jeo 48 Test","reference":"urn:uuid:b509ff80-6fff-4164-834b-393c124220de","type":"http://ehelse.no/fhir/StructureDefinition/sfm-Patient"}}},{"fullUrl":"urn:uuid:639a35c8-a7be-4225-bc32-2ce4d0163903","resource":{"code":[{"coding":[{"code":"R","display":"Rekvirent","system":"urn:oid:2.16.578.1.12.4.1.1.7490"}]}],"id":"1199678476","meta":{"profile":["http://ehelse.no/fhir/StructureDefinition/sfm-PractitionerRole"]},"practitioner":{"display":"Jesper Odd Hansen, HPR: 7479654","identifier":{"system":"urn:oid:2.16.578.1.12.4.1.4.4","type":{"coding":[{"code":"HPR-nummer","system":"http://hl7.no/fhir/NamingSystem/HPR"}]},"use":"official","value":"7479654"},"reference":"urn:uuid:d13c539d-a4de-4093-9805-ceb278bdc308","type":"http://ehelse.no/fhir/StructureDefinition/sfm-Practitioner"},"resourceType":"PractitionerRole"}},{"fullUrl":"urn:uuid:9b38fc1f-06da-49d4-9c17-057b1d717306","resource":{"author":{"display":"Jesper Odd Hansen, HPR: 7479654, R:Rekvirent","reference":"urn:uuid:639a35c8-a7be-4225-bc32-2ce4d0163903","type":"http://ehelse.no/fhir/StructureDefinition/sfm-PractitionerRole"},"code":{"coding":[{"code":"A","display":"Annet","system":"urn:oid:2.16.578.1.12.4.1.1.7402"}]},"extension":[{"extension":[{"url":"productgroup","valueCodeableConcept":{"coding":[{"code":"601","display":"Næringsmidler ved diverse tilstander","system":"urn:oid:2.16.578.1.12.4.1.1.7403"}]}}],"url":"http://ehelse.no/fhir/StructureDefinition/sfm-reseptdocbanda"},{"extension":[{"url":"reseptdate","valueDate":"2023-12-20"},{"url":"expirationdate","valueDate":"2024-12-19"},{"url":"festUpdate","valueDateTime":"2023-12-20T11:54:48.9363852+00:00"},{"url":"guardiantransparencyreservation","valueBoolean":false},{"url":"indoctorsname","valueBoolean":false},{"url":"dssn","valueString":"test"},{"url":"lockedresept","valueBoolean":false},{"url":"itemgroup","valueCodeableConcept":{"coding":[{"code":"A","display":"Annet","system":"urn:oid:2.16.578.1.12.4.1.1.7402"}]}},{"url":"reimbursementparagraph","valueCodeableConcept":{"coding":[{"code":"601","display":"§5-14 §6.1","system":"urn:oid:2.16.578.1.12.4.1.1.7427"}]}},{"extension":[{"url":"status","valueCodeableConcept":{"coding":[{"code":"E","display":"Ekspederbar","system":"urn:oid:2.16.578.1.12.4.1.1.7408"}]}}],"url":"rfstatus"},{"url":"typeresept","valueCodeableConcept":{"coding":[{"code":"E","display":"Eresept","system":"urn:oid:2.16.578.1.12.4.1.1.7491"}]}}],"url":"http://ehelse.no/fhir/StructureDefinition/sfm-reseptamendment"}],"id":"838b71f2-8e84-4642-ac5c-31efcb0ae84b","identifier":[{"type":{"text":"reseptId"},"use":"official","value":"89f96dc2-1e0b-4882-85ff-a532e8fb3940"}],"meta":{"profile":["http://ehelse.no/fhir/StructureDefinition/sfm-BandaPrescription"]},"resourceType":"Basic","subject":{"display":"Jeo 48 Test","reference":"urn:uuid:b509ff80-6fff-4164-834b-393c124220de","type":"http://ehelse.no/fhir/StructureDefinition/sfm-Patient"}}},{"fullUrl":"urn:uuid:e9a067d8-2112-4d00-ae9d-f90b4f66a46d","resource":{"code":[{"coding":[{"system":"urn:oid:2.16.578.1.12.4.1.1.7490"}],"text":"PLL author"}],"id":"943647285","meta":{"profile":["http://ehelse.no/fhir/StructureDefinition/sfm-PractitionerRole"]},"organization":{"display":"DIPS-SFM Testsykehuset HF 2, HER: 8141719","identifier":{"system":"urn:oid:2.16.578.1.12.4.1.2","use":"official","value":"8141719"},"reference":"urn:uuid:1ee78603-2d08-4991-8796-45cefee77234","type":"http://ehelse.no/fhir/StructureDefinition/sfm-Organization"},"practitioner":{"display":"Jesper Odd Hansen, HPR: 7479654","identifier":{"system":"urn:oid:2.16.578.1.12.4.1.4.4","type":{"coding":[{"code":"HPR-nummer","system":"http://hl7.no/fhir/NamingSystem/HPR"}]},"use":"official","value":"7479654"},"reference":"urn:uuid:d13c539d-a4de-4093-9805-ceb278bdc308","type":"http://ehelse.no/fhir/StructureDefinition/sfm-Practitioner"},"resourceType":"PractitionerRole"}},{"fullUrl":"urn:uuid:e3427965-d4c5-446e-8777-badca95cb8e9","resource":{"author":{"display":"Jesper Odd Hansen, HPR: 7479654, DIPS-SFM Testsykehuset HF 2, HER: 8141719","reference":"urn:uuid:e9a067d8-2112-4d00-ae9d-f90b4f66a46d","type":"http://ehelse.no/fhir/StructureDefinition/sfm-PractitionerRole"},"code":{"coding":[{"code":"M25.1","display":"PLL","system":"http://ehelse.no/fhir/CodeSystem/sfm-message-type"}]},"extension":[{"extension":[{"url":"substitute","valueBoolean":false},{"url":"PLLdate","valueDateTime":"2024-01-12T12:14:05.2232291+01:00"}],"url":"http://ehelse.no/fhir/StructureDefinition/sfm-pllInformation"}],"id":"081290c9-8068-402b-82fa-cb55e5d9a8e9","identifier":[{"use":"usual","value":"4fb45e3a-45f4-47dd-8404-2389283664ff"}],"meta":{"profile":["http://ehelse.no/fhir/StructureDefinition/sfm-PLL-info"]},"resourceType":"Basic","subject":{"display":"Jeo 48 Test","reference":"urn:uuid:b509ff80-6fff-4164-834b-393c124220de","type":"http://ehelse.no/fhir/StructureDefinition/sfm-Patient"}}},{"fullUrl":"urn:uuid:08476c9b-90ad-4923-a08d-bce41192a60d","resource":{"code":[{"coding":[{"code":"LE","system":"http://nhn.no/kj/fhir/CodeSystem/CategoriesOfHealthProfessionals"}],"text":"Lege"}],"id":"1960496114","meta":{"profile":["http://nhn.no/kj/fhir/StructureDefinition/KjPractitionerRole"]},"organization":{"display":"DIPS-SFM Testsykehuset HF 2, HER: 8141719","identifier":{"system":"urn:oid:2.16.578.1.12.4.1.2","use":"official","value":"8141719"},"reference":"urn:uuid:1ee78603-2d08-4991-8796-45cefee77234","type":"http://ehelse.no/fhir/StructureDefinition/sfm-Organization"},"practitioner":{"display":"Jesper Odd Hansen, HPR: 7479654","identifier":{"system":"urn:oid:2.16.578.1.12.4.1.4.4","type":{"coding":[{"code":"HPR-nummer","system":"http://hl7.no/fhir/NamingSystem/HPR"}]},"use":"official","value":"7479654"},"reference":"urn:uuid:d13c539d-a4de-4093-9805-ceb278bdc308","type":"http://ehelse.no/fhir/StructureDefinition/sfm-Practitioner"},"resourceType":"PractitionerRole"}},{"fullUrl":"urn:uuid:6e7e6653-215e-442a-80e4-adec6d515d3d","resource":{"category":["medication"],"clinicalStatus":{"coding":[{"code":"active","display":"Active","system":"http://terminology.hl7.org/CodeSystem/allergyintolerance-clinical"}]},"code":{"coding":[{"code":"B01AD06","display":"Brinase","system":"http://nhn.no/kj/fhir/CodeSystem/ATC"}]},"criticality":"high","extension":[{"url":"http://nhn.no/kj/fhir/StructureDefinition/KjUpdatedDateTime","valueDateTime":"2022-12-20T15:47:39.96+01:00"},{"url":"http://nhn.no/kj/fhir/StructureDefinition/KjSourceOfInformation","valueCoding":{"code":"5","display":"Hentet fra tidligere journal","system":"http://nhn.no/kj/fhir/CodeSystem/SourceOfInformation"}}],"id":"16a4cff3-078c-4f96-9820-710fb949af28","identifier":[{"use":"official","value":"16a4cff3-078c-4f96-9820-710fb949af28"}],"meta":{"profile":["http://nhn.no/kj/fhir/StructureDefinition/KjAllergyIntolerance"]},"patient":{"display":"Jeo 48 Test","reference":"urn:uuid:b509ff80-6fff-4164-834b-393c124220de","type":"http://ehelse.no/fhir/StructureDefinition/sfm-Patient"},"reaction":[{"manifestation":[{"coding":[{"code":"9","display":"Angioødem/alvorlig generalisert urticaria","system":"http://nhn.no/kj/fhir/CodeSystem/TypeOfReaction"}]}]}],"recordedDate":"2024-01-12","recorder":{"display":"Jesper Odd Hansen, HPR: 7479654, DIPS-SFM Testsykehuset HF 2, HER: 8141719, LE:","reference":"urn:uuid:08476c9b-90ad-4923-a08d-bce41192a60d","type":"http://nhn.no/kj/fhir/StructureDefinition/KjPractitionerRole"},"resourceType":"AllergyIntolerance","verificationStatus":{"coding":[{"code":"unconfirmed","display":"Unconfirmed","system":"http://terminology.hl7.org/CodeSystem/allergyintolerance-verification"}]}}},{"fullUrl":"urn:uuid:04332d6b-f7cb-4e39-a024-10b63d0dc918","resource":{"category":["medication"],"clinicalStatus":{"coding":[{"code":"active","display":"Active","system":"http://terminology.hl7.org/CodeSystem/allergyintolerance-clinical"}]},"code":{"coding":[{"code":"ID_88E11551-50D3-4B68-B295-82997FA909A0","display":"Hydrocortisone","system":"http://nhn.no/kj/fhir/CodeSystem/DrugTradeName"}]},"criticality":"high","extension":[{"url":"http://nhn.no/kj/fhir/StructureDefinition/KjUpdatedDateTime","valueDateTime":"2022-12-20T15:47:48.463+01:00"},{"url":"http://nhn.no/kj/fhir/StructureDefinition/KjSourceOfInformation","valueCoding":{"code":"2","display":"Observert av behandlende lege","system":"http://nhn.no/kj/fhir/CodeSystem/SourceOfInformation"}}],"id":"2fed51c1-c7c4-4611-80cd-9e17f8a98a6b","identifier":[{"use":"official","value":"2fed51c1-c7c4-4611-80cd-9e17f8a98a6b"}],"meta":{"profile":["http://nhn.no/kj/fhir/StructureDefinition/KjAllergyIntolerance"]},"patient":{"display":"Jeo 48 Test","reference":"urn:uuid:b509ff80-6fff-4164-834b-393c124220de","type":"http://ehelse.no/fhir/StructureDefinition/sfm-Patient"},"reaction":[{"manifestation":[{"coding":[{"code":"3","display":"Arytmi (hjerterytmeforstyrrelse)","system":"http://nhn.no/kj/fhir/CodeSystem/TypeOfReaction"}]}]}],"recordedDate":"2024-01-12","recorder":{"display":"Jesper Odd Hansen, HPR: 7479654, DIPS-SFM Testsykehuset HF 2, HER: 8141719, LE:","reference":"urn:uuid:08476c9b-90ad-4923-a08d-bce41192a60d","type":"http://nhn.no/kj/fhir/StructureDefinition/KjPractitionerRole"},"resourceType":"AllergyIntolerance","verificationStatus":{"coding":[{"code":"unconfirmed","display":"Unconfirmed","system":"http://terminology.hl7.org/CodeSystem/allergyintolerance-verification"}]}}},{"fullUrl":"urn:uuid:b7cc5ccd-2e69-43f6-9525-579593cd3b80","resource":{"category":["medication"],"clinicalStatus":{"coding":[{"code":"active","display":"Active","system":"http://terminology.hl7.org/CodeSystem/allergyintolerance-clinical"}]},"code":{"coding":[{"code":"ID_11F00EAB-8F55-4BDF-96E3-8C4F413635AE","display":"Kabazitakselaceton","system":"http://nhn.no/kj/fhir/CodeSystem/ActiveSubstance"}]},"criticality":"high","extension":[{"url":"http://nhn.no/kj/fhir/StructureDefinition/KjUpdatedDateTime","valueDateTime":"2022-12-20T15:47:56.08+01:00"},{"url":"http://nhn.no/kj/fhir/StructureDefinition/KjSourceOfInformation","valueCoding":{"code":"6","display":"Annet","system":"http://nhn.no/kj/fhir/CodeSystem/SourceOfInformation"}}],"id":"f77e9fe6-c5f4-4a58-82e5-c13262626ba2","identifier":[{"use":"official","value":"f77e9fe6-c5f4-4a58-82e5-c13262626ba2"}],"meta":{"profile":["http://nhn.no/kj/fhir/StructureDefinition/KjAllergyIntolerance"]},"patient":{"display":"Jeo 48 Test","reference":"urn:uuid:b509ff80-6fff-4164-834b-393c124220de","type":"http://ehelse.no/fhir/StructureDefinition/sfm-Patient"},"reaction":[{"manifestation":[{"coding":[{"code":"1","display":"Anafylaktisk reaksjon","system":"http://nhn.no/kj/fhir/CodeSystem/TypeOfReaction"}]}]}],"recordedDate":"2024-01-12","recorder":{"display":"Jesper Odd Hansen, HPR: 7479654, DIPS-SFM Testsykehuset HF 2, HER: 8141719, LE:","reference":"urn:uuid:08476c9b-90ad-4923-a08d-bce41192a60d","type":"http://nhn.no/kj/fhir/StructureDefinition/KjPractitionerRole"},"resourceType":"AllergyIntolerance","verificationStatus":{"coding":[{"code":"unconfirmed","display":"Unconfirmed","system":"http://terminology.hl7.org/CodeSystem/allergyintolerance-verification"}]}}}],"id":"efcc61fa-3bc2-4851-88ac-de471382c14d","link":[{"relation":"self","url":"http://base-fhir.test2.forskrivning.no/patient/$getMedication"}],"meta":{"lastUpdated":"2024-02-07T18:24:00.8740406+01:00","profile":["http://ehelse.no/fhir/StructureDefinition/sfm-MedicationBundle"],"source":"http://base-fhir.test2.forskrivning.no/Patient/$getMedication"},"resourceType":"Bundle","timestamp":"2024-02-07T18:24:00.8740365+01:00","total":23,"type":"document"}},{"name":"KJHentetTidspunkt","valueDateTime":"2024-02-07T18:24:00.7211344+01:00"},{"name":"RFHentetTidspunkt","valueDateTime":"2024-02-07T18:24:00.659+01:00"},{"name":"KJFeilkode","valueCodeableConcept":{"coding":[{"code":"5","display":"Ingen rettighet til KJ oppslag","system":"http://ehelse.no/fhir/CodeSystem/sfm-kj-rf-error-code"}],"text":"Ingen rettighet til KJ oppslag"}},{"name":"RFM96Feilkode","valueCodeableConcept":{"coding":[{"code":"0","display":"OK","system":"http://ehelse.no/fhir/CodeSystem/sfm-kj-rf-error-code"}]}},{"name":"RFM912Feilkode","valueCodeableConcept":{"coding":[{"code":"0","display":"OK","system":"http://ehelse.no/fhir/CodeSystem/sfm-kj-rf-error-code"}]}},{"name":"KJHarLegemidler","valueBoolean":false},{"name":"KJHarLaste","valueBoolean":false},{"name":"RFHarLaste","valueBoolean":false}],"resourceType":"Parameters"}