{
  "resourceType": "Parameters",
  "parameter": [
    {
      "name": "medication",
      "resource": {
        "resourceType": "Bundle",
        "id": "891606ad-e98e-4474-bd8e-b0accd84af09",
        "meta": {
          "lastUpdated": "2023-12-09T12:58:26.8265546+01:00",
          "source": "http://base-fhir.test2.forskrivning.no/Patient/$getMedication?_format=json",
          "profile": [
            "http://ehelse.no/fhir/StructureDefinition/sfm-MedicationBundle"
          ]
        },
        "type": "document",
        "timestamp": "2023-12-09T12:58:26.826552+01:00",
        "total": 8,
        "link": [
          {
            "relation": "self",
            "url": "http://base-fhir.test2.forskrivning.no/Patient/$getMedication"
          }
        ],
        "entry": [
          {
            "fullUrl": "urn:uuid:24495378-bed9-4619-bac0-195cc5127103",
            "resource": {
              "resourceType": "Composition",
              "id": "82df4dc7-1ceb-468c-8286-e280281fc6a1",
              "meta": {
                "profile": [
                  "http://ehelse.no/fhir/StructureDefinition/sfm-MedicationComposition"
                ]
              },
              "identifier": {
                "use": "official",
                "value": "7fd937c8-4107-40b8-b7b6-20f88d0ad3bc"
              },
              "status": "final",
              "type": {
                "coding": [
                  {
                    "system": "http://loinc.org",
                    "code": "11503-0",
                    "display": "Medical records"
                  }
                ]
              },
              "subject": {
                "reference": "urn:uuid:fbb4c124-b6fd-497d-b7af-79549c88056f",
                "type": "http://ehelse.no/fhir/StructureDefinition/sfm-Patient",
                "display": "Jeo 48 Test"
              },
              "date": "2023-12-09",
              "author": [
                {
                  "reference": "urn:uuid:3755606e-3f35-4806-ad2c-28d307970383",
                  "type": "http://ehelse.no/fhir/StructureDefinition/sfm-Practitioner",
                  "display": "Jesper Odd Hansen, HPR: 7479654"
                },
                {
                  "reference": "urn:uuid:977a7f57-8fa2-49ac-9aba-fd3151f2d70b",
                  "type": "http://ehelse.no/fhir/StructureDefinition/sfm-Organization",
                  "display": "HER: 79744"
                }
              ],
              "title": "Medication summary",
              "confidentiality": "N",
              "attester": [
                {
                  "mode": "legal",
                  "time": "2023-12-09T12:58:35.8668105+01:00",
                  "party": {
                    "reference": "urn:uuid:3755606e-3f35-4806-ad2c-28d307970383",
                    "type": "http://ehelse.no/fhir/StructureDefinition/sfm-Practitioner"
                  }
                }
              ],
              "relatesTo": [
                {
                  "code": "replaces",
                  "targetIdentifier": {
                    "use": "official",
                    "value": "b23dfeba-cc23-46e9-ab7a-19f634440fb9"
                  }
                }
              ],
              "section": [
                {
                  "title": "Medication",
                  "code": {
                    "coding": [
                      {
                        "system": "http://ehelse.no/fhir/CodeSystem/sfm-section-types",
                        "code": "sectionMedication",
                        "display": "List of Medication statements"
                      }
                    ]
                  },
                  "text": {
                    "status": "generated",
                    "div": "<xhtml:div xmlns:xhtml=\"http://www.w3.org/1999/xhtml\">List of medications</xhtml:div>"
                  },
                  "entry": [
                    {
                      "reference": "urn:uuid:89997cbd-b111-462a-8ed2-7b99a25bcadf",
                      "type": "http://ehelse.no/fhir/StructureDefinition/sfm-MedicationStatement",
                      "display": "Glucos. B. Braun inf, oppl 200 mg/ml ad, Cetirizin 0,01 mg inj/inf, oppl 750 mg"
                    }
                  ]
                },
                {
                  "title": "PllInfo",
                  "code": {
                    "coding": [
                      {
                        "system": "http://ehelse.no/fhir/CodeSystem/sfm-section-types",
                        "code": "sectionPLLinfo",
                        "display": "PLL Info"
                      }
                    ]
                  },
                  "text": {
                    "status": "generated",
                    "div": "<xhtml:div xmlns:xhtml=\"http://www.w3.org/1999/xhtml\"></xhtml:div>"
                  },
                  "emptyReason": {
                    "coding": [
                      {
                        "system": "http://terminology.hl7.org/CodeSystem/list-empty-reason",
                        "code": "unavailable",
                        "display": "Unavailable"
                      }
                    ]
                  }
                },
                {
                  "title": "Allergies",
                  "code": {
                    "coding": [
                      {
                        "system": "http://ehelse.no/fhir/CodeSystem/sfm-section-types",
                        "code": "sectionAllergies",
                        "display": "Section allergies"
                      }
                    ]
                  },
                  "text": {
                    "status": "generated",
                    "div": "<xhtml:div xmlns:xhtml=\"http://www.w3.org/1999/xhtml\"></xhtml:div>"
                  },
                  "emptyReason": {
                    "coding": [
                      {
                        "system": "http://terminology.hl7.org/CodeSystem/list-empty-reason",
                        "code": "unavailable",
                        "display": "Unavailable"
                      }
                    ]
                  }
                },
                {
                  "title": "Other Prescriptions",
                  "code": {
                    "coding": [
                      {
                        "system": "http://ehelse.no/fhir/CodeSystem/sfm-section-types",
                        "code": "sectionOtherPrescriptions",
                        "display": "List of non medical prescriptions"
                      }
                    ]
                  },
                  "text": {
                    "status": "generated",
                    "div": "<xhtml:div xmlns:xhtml=\"http://www.w3.org/1999/xhtml\"></xhtml:div>"
                  },
                  "emptyReason": {
                    "coding": [
                      {
                        "system": "http://terminology.hl7.org/CodeSystem/list-empty-reason",
                        "code": "unavailable",
                        "display": "Unavailable"
                      }
                    ]
                  }
                }
              ]
            }
          },
          {
            "fullUrl": "urn:uuid:3755606e-3f35-4806-ad2c-28d307970383",
            "resource": {
              "resourceType": "Practitioner",
              "id": "1836087467",
              "meta": {
                "profile": [
                  "http://ehelse.no/fhir/StructureDefinition/sfm-Practitioner"
                ]
              },
              "identifier": [
                {
                  "use": "official",
                  "type": {
                    "coding": [
                      {
                        "system": "http://hl7.no/fhir/NamingSystem/HPR",
                        "code": "HPR-nummer"
                      }
                    ]
                  },
                  "system": "urn:oid:2.16.578.1.12.4.1.4.4",
                  "value": "7479654"
                },
                {
                  "use": "official",
                  "type": {
                    "coding": [
                      {
                        "system": "http://hl7.no/fhir/NamingSystem/FNR",
                        "code": "FNR-nummer"
                      }
                    ]
                  },
                  "system": "urn:oid:2.16.578.1.12.4.1.4.1",
                  "value": "23048201385"
                }
              ],
              "active": true,
              "name": [
                {
                  "use": "official",
                  "family": "Hansen",
                  "given": [
                    "Jesper Odd"
                  ]
                }
              ],
              "gender": "female",
              "birthDate": "1982-04-23"
            }
          },
          {
            "fullUrl": "urn:uuid:977a7f57-8fa2-49ac-9aba-fd3151f2d70b",
            "resource": {
              "resourceType": "Organization",
              "id": "1829156548",
              "meta": {
                "profile": [
                  "http://ehelse.no/fhir/StructureDefinition/sfm-Organization"
                ]
              },
              "identifier": [
                {
                  "use": "official",
                  "system": "urn:oid:2.16.578.1.12.4.1.2",
                  "value": "79744"
                }
              ]
            }
          },
          {
            "fullUrl": "urn:uuid:fbb4c124-b6fd-497d-b7af-79549c88056f",
            "resource": {
              "resourceType": "Patient",
              "id": "429924605",
              "meta": {
                "profile": [
                  "http://ehelse.no/fhir/StructureDefinition/sfm-Patient"
                ]
              },
              "identifier": [
                {
                  "use": "official",
                  "type": {
                    "coding": [
                      {
                        "system": "http://hl7.no/fhir/NamingSystem/FNR",
                        "code": "FNR-nummer"
                      }
                    ]
                  },
                  "system": "urn:oid:2.16.578.1.12.4.1.4.1",
                  "value": "06120182763"
                }
              ],
              "active": true,
              "name": [
                {
                  "family": "Test",
                  "given": [
                    "Jeo 48"
                  ]
                }
              ],
              "gender": "male",
              "birthDate": "2001-12-06",
              "address": [
                {
                  "type": "postal",
                  "city": "FAUSKE",
                  "postalCode": "8200"
                }
              ]
            }
          },
          {
            "fullUrl": "urn:uuid:9830283b-4f0d-4638-bfff-ba9530d48232",
            "resource": {
              "resourceType": "Medication",
              "id": "1169592248",
              "meta": {
                "profile": [
                  "http://hl7.org/fhir/StructureDefinition/Medication"
                ]
              },
              "extension": [
                {
                  "extension": [
                    {
                      "url": "prescriptiongroup",
                      "valueCodeableConcept": {
                        "coding": [
                          {
                            "system": "urn:oid:2.16.578.1.12.4.1.1.7421",
                            "code": "C",
                            "display": "Reseptgruppe C"
                          }
                        ]
                      }
                    }
                  ],
                  "url": "http://hl7.no/fhir/StructureDefinition/no-basis-prescriptiongroup"
                },
                {
                  "extension": [
                    {
                      "url": "registreringstype",
                      "valueCodeableConcept": {
                        "coding": [
                          {
                            "system": "http://ehelse.no/fhir/CodeSystem/sfm-festregistrationtype",
                            "code": "2",
                            "display": "Legemiddelmerkevare"
                          }
                        ]
                      }
                    },
                    {
                      "url": "name",
                      "valueString": "Glucos. B. Braun"
                    }
                  ],
                  "url": "http://ehelse.no/fhir/StructureDefinition/sfm-medicationdetails"
                }
              ],
              "identifier": [
                {
                  "use": "official",
                  "type": {
                    "text": "identifier"
                  },
                  "value": "ID_B244BA72-8177-430E-94DB-F98063EB3D36"
                }
              ],
              "code": {
                "coding": [
                  {
                    "system": "http://ehelse.no/fhir/CodeSystem/FEST",
                    "code": "ID_B244BA72-8177-430E-94DB-F98063EB3D36",
                    "display": "Glucos. B. Braun inf, oppl 200 mg/ml"
                  },
                  {
                    "system": "http://www.whocc.no/atc",
                    "code": "B05BA03",
                    "display": "Karbohydrater"
                  }
                ]
              },
              "status": "active",
              "form": {
                "coding": [
                  {
                    "system": "urn:oid:2.16.578.1.12.4.1.1.7448",
                    "code": "858",
                    "display": "Infusjonsvæske, oppløsning"
                  }
                ]
              }
            }
          },
          {
            "fullUrl": "urn:uuid:581ff4c8-9bbf-4395-bea9-8deb02b6d6bb",
            "resource": {
              "resourceType": "Substance",
              "id": "59121922",
              "meta": {
                "profile": [
                  "http://ehelse.no/fhir/StructureDefinition/sfm-Substance"
                ]
              },
              "identifier": [
                {
                  "use": "official",
                  "type": {
                    "text": "identifier"
                  },
                  "value": "ID_9132CC79-2D51-4E6E-91CD-DA9F1D62C125"
                }
              ],
              "status": "active",
              "code": {
                "coding": [
                  {
                    "system": "http://ehelse.no/fhir/CodeSystem/FEST",
                    "code": "ID_9132CC79-2D51-4E6E-91CD-DA9F1D62C125",
                    "display": "Cetirizin"
                  }
                ]
              }
            }
          },
          {
            "fullUrl": "urn:uuid:50048ac0-a7de-4a3c-84e8-f74b1a4363f6",
            "resource": {
              "resourceType": "Medication",
              "id": "53622958",
              "meta": {
                "profile": [
                  "http://ehelse.no/fhir/StructureDefinition/sfm-Magistrell-Medication"
                ]
              },
              "extension": [
                {
                  "url": "http://hl7.no/fhir/StructureDefinition/no-basis-prescriptiongroup",
                  "valueCodeableConcept": {
                    "coding": [
                      {
                        "system": "urn:oid:2.16.578.1.12.4.1.1.7421",
                        "code": "C",
                        "display": "Reseptgruppe C"
                      }
                    ]
                  }
                },
                {
                  "url": "http://ehelse.no/fhir/StructureDefinition/sfm-name",
                  "valueString": "Glucos. B. Braun inf, oppl 200 mg/ml ad, Cetirizin 0,01 mg inj/inf, oppl 750 mg"
                },
                {
                  "url": "http://ehelse.no/fhir/StructureDefinition/sfm-recipe",
                  "valueString": "prcip"
                }
              ],
              "code": {
                "coding": [
                  {
                    "system": "urn:oid:2.16.578.1.12.4.1.1.7424",
                    "code": "10",
                    "display": "Magistrell"
                  }
                ]
              },
              "status": "active",
              "form": {
                "coding": [
                  {
                    "system": "urn:oid:2.16.578.1.12.4.1.1.7448",
                    "code": "880",
                    "display": "inj/inf, oppl"
                  }
                ]
              },
              "amount": {
                "numerator": {
                  "value": 750.0,
                  "unit": "mg"
                }
              },
              "ingredient": [
                {
                  "extension": [
                    {
                      "extension": [
                        {
                          "url": "ad",
                          "valueBoolean": true
                        }
                      ],
                      "url": "http://ehelse.no/fhir/StructureDefinition/sfm-adqs"
                    }
                  ],
                  "itemReference": {
                    "reference": "urn:uuid:9830283b-4f0d-4638-bfff-ba9530d48232",
                    "type": "http://ehelse.no/fhir/StructureDefinition/sfm-Medication",
                    "display": "Glucos. B. Braun inf, oppl 200 mg/ml"
                  },
                  "isActive": false
                },
                {
                  "itemReference": {
                    "reference": "urn:uuid:581ff4c8-9bbf-4395-bea9-8deb02b6d6bb",
                    "type": "http://ehelse.no/fhir/StructureDefinition/sfm-Substance",
                    "display": "Cetirizin"
                  },
                  "isActive": true,
                  "strength": {
                    "numerator": {
                      "value": 0.01,
                      "unit": "mg"
                    }
                  }
                }
              ]
            }
          },
          {
            "fullUrl": "urn:uuid:89997cbd-b111-462a-8ed2-7b99a25bcadf",
            "resource": {
              "resourceType": "MedicationStatement",
              "id": "161187434",
              "meta": {
                "profile": [
                  "http://ehelse.no/fhir/StructureDefinition/sfm-MedicationStatement"
                ]
              },
              "extension": [
                {
                  "extension": [
                    {
                      "url": "reseptdate",
                      "valueDate": "2023-12-06"
                    },
                    {
                      "url": "expirationdate",
                      "valueDate": "2024-12-05"
                    },
                    {
                      "url": "festUpdate",
                      "valueDateTime": "2023-11-24T11:58:58+00:00"
                    },
                    {
                      "url": "dssn",
                      "valueString": "1"
                    },
                    {
                      "url": "numberofpackages",
                      "valueDecimal": 2.0
                    },
                    {
                      "url": "reit",
                      "valueString": "0"
                    },
                    {
                      "url": "itemgroup",
                      "valueCodeableConcept": {
                        "coding": [
                          {
                            "system": "urn:oid:2.16.578.1.12.4.1.1.7402",
                            "code": "L",
                            "display": "Legemiddel"
                          }
                        ]
                      }
                    },
                    {
                      "extension": [
                        {
                          "url": "status",
                          "valueCodeableConcept": {
                            "coding": [
                              {
                                "system": "urn:oid:2.16.578.1.12.4.1.1.7408",
                                "code": "E",
                                "display": "Ekspederbar"
                              }
                            ]
                          }
                        }
                      ],
                      "url": "rfstatus"
                    },
                    {
                      "url": "typeresept",
                      "valueCodeableConcept": {
                        "coding": [
                          {
                            "system": "urn:oid:2.16.578.1.12.4.1.1.7491",
                            "code": "E",
                            "display": "Eresept"
                          }
                        ]
                      }
                    }
                  ],
                  "url": "http://ehelse.no/fhir/StructureDefinition/sfm-reseptamendment"
                },
                {
                  "extension": [
                    {
                      "url": "status",
                      "valueCodeableConcept": {
                        "coding": [
                          {
                            "system": "http://ehelse.no/fhir/CodeSystem/sfm-medicationstatement-registration-status",
                            "code": "3",
                            "display": "Godkjent"
                          }
                        ]
                      }
                    },
                    {
                      "url": "type",
                      "valueCodeableConcept": {
                        "coding": [
                          {
                            "system": "http://ehelse.no/fhir/CodeSystem/sfm-performer-roles",
                            "code": "1",
                            "display": "Forskrevet av"
                          }
                        ]
                      }
                    },
                    {
                      "url": "provider",
                      "valueReference": {
                        "reference": "urn:uuid:3755606e-3f35-4806-ad2c-28d307970383",
                        "type": "http://ehelse.no/fhir/StructureDefinition/sfm-Practitioner",
                        "display": "Jesper Odd Hansen, HPR: 7479654"
                      }
                    },
                    {
                      "url": "timestamp",
                      "valueDateTime": "2023-12-06T13:36:36.658+01:00"
                    }
                  ],
                  "url": "http://ehelse.no/fhir/StructureDefinition/sfm-regInfo"
                },
                {
                  "extension": [
                    {
                      "url": "genericSubstitutionAccepted",
                      "valueBoolean": true
                    }
                  ],
                  "url": "http://ehelse.no/fhir/StructureDefinition/sfm-generic-substitution"
                }
              ],
              "identifier": [
                {
                  "use": "usual",
                  "type": {
                    "text": "ReseptId"
                  },
                  "value": "7fd3e0c6-1c19-4e0b-b60d-dd006d1ce5d0"
                }
              ],
              "status": "active",
              "medicationReference": {
                "reference": "urn:uuid:50048ac0-a7de-4a3c-84e8-f74b1a4363f6",
                "type": "http://ehelse.no/fhir/StructureDefinition/sfm-Magistrell-Medication",
                "display": "Glucos. B. Braun inf, oppl 200 mg/ml ad, Cetirizin 0,01 mg inj/inf, oppl 750 mg"
              },
              "subject": {
                "reference": "urn:uuid:fbb4c124-b6fd-497d-b7af-79549c88056f",
                "type": "http://ehelse.no/fhir/StructureDefinition/sfm-Patient",
                "display": "Jeo 48 Test"
              },
              "dosage": [
                {
                  "extension": [
                    {
                      "url": "http://ehelse.no/fhir/StructureDefinition/sfm-use",
                      "valueCodeableConcept": {
                        "coding": [
                          {
                            "system": "urn:oid:2.16.578.1.12.4.1.1.9101",
                            "code": "1",
                            "display": "Fast"
                          }
                        ]
                      }
                    },
                    {
                      "extension": [
                        {
                          "url": "text",
                          "valueString": "1"
                        }
                      ],
                      "url": "http://ehelse.no/fhir/StructureDefinition/sfm-application-area"
                    }
                  ],
                  "sequence": 1,
                  "text": "1"
                }
              ]
            }
          }
        ]
      }
    }
  ]
}